Time,ACCX,ACCY,ACCZ,GYRX,GYRY,GYRZ,MAGX,MAGY,MAGZ
1694132302.6359665,0.0008135156249999996,0.0035932031249999996,1.00877953125,-0.2659911523437499,-0.4365834570312499,-2.304015078125,-27.216372398649195,-7.001065721124591,-46.08004498200416
1694132302.6561248,0.0020952539062499996,0.0044476953125,1.00761986328125,0.15362554687500007,-1.93194478515625,1.19787701171875,-26.141297140592552,-6.391737434503496,-45.8107661207981
1694132302.6760483,0.0018511132812499996,0.0038373437499999996,1.0079250390625,-0.06762689453124993,1.62335306640625,-0.25933734374999995,-27.134015013517363,-7.291424938898027,-45.61941467231177
1694132302.6960402,0.0008745507812499996,0.0038373437499999996,1.0079250390625,0.22991949218750007,0.4942026757812501,-1.1596058984375,-26.129370016569116,-5.95726465862459,-46.36862682697486
1694132302.7160382,0.0017900781249999996,0.0037152734374999996,1.0073146875,-0.09051507812499993,-0.8485707617187499,0.12213238281250005,-27.196959010709744,-7.20818409612459,-45.86442165217017
1694132302.736043,0.0017900781249999996,0.0032269921874999996,1.00859642578125,0.008667050781250074,-0.2687367773437499,-0.93835345703125,-26.16655054769705,-6.012534886651935,-46.010989293649665
1694132302.7560468,0.0018511132812499996,0.0034711328124999996,1.007070546875,0.17651373046875007,0.9519663476562501,-0.21356097656249995,-26.58112086837576,-6.350215246026934,-46.5273736718235
1694132302.776052,0.0018511132812499996,0.0032880273437499996,1.00920677734375,-0.16680902343749993,-0.0322255468749999,3.3875132421875,-26.416499784635526,-6.853384493585529,-45.94209605573462
1694132302.7960634,0.0022783593749999996,0.00426458984375,1.00737572265625,-0.09051507812499993,-0.6578358984374999,-0.23644916015624995,-26.130470148405056,-5.888904310968341,-46.773033727975836
1694132302.8160555,0.0017900781249999996,0.0042035546875,1.00761986328125,0.3748779882812501,1.16558939453125,1.09106548828125,-27.331390227384546,-7.330174584894121,-44.69038615973853
1694132302.8360562,0.0011797265624999996,0.0038983789062499996,1.008047109375,-0.11340326171874993,0.5399790429687501,0.7630015234375,-26.128852170255644,-6.235082537042558,-46.50563177265357
1694132302.8560567,0.0020952539062499996,0.00414251953125,1.00859642578125,-0.11340326171874993,-0.8256825781249999,0.38916119140625005,-26.621584808073024,-6.706048773858966,-46.615452140451424
1694132302.8760614,0.0014849023437499996,0.00402044921875,1.00829125,0.5198364843750001,1.16558939453125,-1.60974017578125,-26.63237323470877,-6.5083992133120905,-44.5138087322483
1694132302.8960648,0.0015459374999999996,0.0030438867187499996,1.0064601953125,0.4206543554687501,1.2647715234375,-0.30511371093749995,-26.427852723356228,-6.2803183280581845,-46.838791913644776
1694132302.9160702,0.0012407617187499996,0.0039594140625,1.00859642578125,-0.09051507812499993,-0.6349477148437499,0.44256695312500005,-27.398873438444117,-7.1727632582339655,-45.73003529035377
1694132302.9360735,0.0011186914062499996,0.0049359765625,1.00761986328125,0.6724243750000001,-0.5357655859374999,-0.37377826171874995,-26.251178089445094,-6.09056363860506,-46.524421966867436
1694132302.9560778,0.0016680078124999996,0.00438666015625,1.00749779296875,0.008667050781250074,1.16558939453125,-0.961241640625,-27.203825895109155,-6.81424823284334,-46.8909146150608
1694132302.9761245,0.0021562890624999996,0.0037763085937499996,1.00688744140625,0.07733160156250007,0.4255381250000001,0.63330181640625,-26.268453200651148,-5.791341710870684,-45.53976773920631
1694132302.9960837,0.0017290429687499996,0.004569765625,1.00780296875,0.3977661718750001,-0.7570180273437499,-0.49584857421874995,-26.156394800992945,-6.088074194269121,-45.973208559640874
1694132303.0160866,0.0011797265624999996,0.0034711328124999996,1.00835228515625,0.15362554687500007,2.5159922265625,-1.35034076171875,-27.308947576749784,-7.032564081964435,-46.27443157172584
1694132303.0360858,0.0016069726562499996,0.0034100976562499996,1.00682640625,-0.15917962890624993,1.09692484375,0.78588970703125,-26.71999994601248,-5.939241827569903,-46.706999271677006
1694132303.0560887,0.0022173242187499996,0.0038983789062499996,1.00884056640625,0.13073736328125007,-0.0322255468749999,-0.31274310546874995,-27.362996105558377,-7.109457864190997,-46.26007176227759
1694132303.076093,0.0019731835937499996,0.0046918359375,1.00780296875,0.19940191406250007,-0.3221425390624999,-0.55688373046875,-26.46614019296072,-6.190214698175372,-47.21005102204322
1694132303.0960977,0.0025835351562499996,0.0035321679687499996,1.007070546875,0.4969483007812501,0.8604136132812501,-0.18304339843749995,-26.450811140226346,-5.930660374444903,-46.67069500641822
1694132303.116106,0.0017290429687499996,0.004081484375,1.00761986328125,-0.21258539062499993,0.4255381250000001,0.23657330078125005,-27.12054213790701,-7.171896442804279,-46.04886392951392
1694132303.136116,0.0021562890624999996,0.0038983789062499996,1.00847435546875,0.18414312500000007,0.1813975000000001,0.63330181640625,-26.556402294523217,-5.94595557268709,-46.95765025434302
1694132303.156117,0.0020342187499999996,0.0037152734374999996,1.00761986328125,0.9394531835937501,1.28765970703125,0.26709087890625005,-27.160062659269315,-7.474442171319904,-44.90057801972389
1694132303.1761205,0.0018511132812499996,0.0027387109374999996,1.00835228515625,-0.4796141992187499,-1.06219380859375,-0.16778460937499995,-26.87633377987478,-6.218678595148029,-47.200802237985606
1694132303.1961172,0.0013017968749999996,0.00475287109375,1.0069484765625,0.031555234375000074,0.2805796289062501,-0.9154652734375,-26.736051010831815,-6.792249877862871,-46.188304955514894
1694132303.2161264,0.0022783593749999996,0.004569765625,1.0081691796875,0.3748779882812501,0.7612314843750001,-1.2816762109375,-26.67747013412283,-7.3387342035464656,-45.81995165644264
1694132303.2361307,0.0024614648437499996,0.0039594140625,1.00847435546875,0.18414312500000007,0.9290781640625001,0.07635601562500005,-26.699155952970486,-6.337440052667558,-46.89593999311255
1694132303.2561486,0.0017290429687499996,0.004081484375,1.00664330078125,-0.15917962890624993,0.6849375390625001,-1.39611712890625,-27.4613922358074,-7.105065816827715,-47.2245069444065
1694132303.2761428,0.0013017968749999996,0.0035932031249999996,1.0074367578125,-0.15917962890624993,-0.4899892187499999,-0.31274310546874995,-26.711371923917753,-6.0207559091128715,-46.80660201081275
1694132303.2961571,0.0025224999999999996,0.0029828515624999996,1.00786400390625,0.13073736328125007,1.5089121484375,0.24420269531250005,-26.769954999357203,-7.096164430108965,-45.796880462472906
1694132303.3161314,0.0022173242187499996,0.00402044921875,1.00798607421875,0.13073736328125007,0.2805796289062501,-0.23644916015624995,-26.272055862150175,-6.213091051690997,-45.5099745537815
1694132303.336169,0.0009355859374999996,0.004325625,1.00725365234375,-0.21258539062499993,-0.7570180273437499,0.7019663671875,-26.712132382902123,-6.0622500512027155,-46.71304887702369
1694132303.3561423,0.0017290429687499996,0.0046918359375,1.0081691796875,-0.8229369531249999,1.11981302734375,0.7324839453125,-27.382550572965606,-7.191488918878498,-46.63515088520239
1694132303.3761473,0.0013628320312499996,0.0035932031249999996,1.00859642578125,0.18414312500000007,0.7841196679687501,0.44256695312500005,-26.385024999845484,-6.259867152765216,-46.44936737970924
1694132303.3961477,0.0014849023437499996,0.0039594140625,1.00786400390625,0.17651373046875007,-0.2458485937499999,0.67907818359375,-27.84455385946463,-6.733084609308183,-44.6633526886692
1694132303.4161549,0.0009966210937499996,0.00450873046875,1.00639916015625,-0.4338378320312499,-1.039305625,0.808777890625,-26.224910390348416,-6.352865567315996,-46.707761880807865
1694132303.4361553,0.0022783593749999996,0.00426458984375,1.00780296875,-0.044738710937499926,1.19610697265625,-1.205382265625,-26.175539702604272,-5.774851073663654,-46.606339086252206
1694132303.4562194,0.0018511132812499996,0.0035321679687499996,1.0084133203125,-0.23547357421874993,0.7383433007812501,-1.296935,-27.438695439298613,-7.011620892023028,-46.563167612619395
1694132303.4761968,0.0012407617187499996,0.00438666015625,1.00713158203125,-0.18969720703124993,-0.4213246679687499,-0.49584857421874995,-26.732133510099388,-6.082422462823809,-46.035655822702395
1694132303.49619,0.0011186914062499996,0.00481390625,1.0071926171875,-0.4567260156249999,1.8446055078125,0.5341196875,-27.745399663175565,-6.7858610375308395,-44.77491188666724
1694132303.5161512,0.0015459374999999996,0.0039594140625,1.0081691796875,-0.2812499414062499,0.4026499414062501,0.6104136328125,-26.293557800260526,-6.267720223077716,-46.207400706491455
1694132303.5361469,0.0015459374999999996,0.0035932031249999996,1.0086574609375,0.20703130859375007,-0.9019765234374999,-0.32800189453124995,-26.73908260714529,-6.760636144464434,-45.28363815851783
1694132303.5561955,0.0015459374999999996,0.0037152734374999996,1.00713158203125,-0.23547357421874993,1.50128275390625,1.6480112890625,-26.635398396574,-6.900448069269121,-45.90748619281959
1694132303.57618,0.0019731835937499996,0.00475287109375,1.00798607421875,-0.7771605859374999,0.0669565820312501,1.96081646484375,-26.303452907316192,-6.193787948663654,-46.21070165278052
1694132303.596182,0.0022173242187499996,0.0039594140625,1.00859642578125,0.2528076757812501,-0.8027943945312499,0.15264996093750005,-27.35464435714529,-6.778567335870685,-45.40274101862525
1694132303.61608,0.0022783593749999996,0.0034711328124999996,1.0079250390625,-0.6322020898437499,-0.7799062109374999,0.28997906250000005,-26.610180984098413,-6.011591375421465,-45.601879670114506
1694132303.636073,0.0016680078124999996,0.00481390625,1.00664330078125,-0.5787963281249999,0.9290781640625001,0.38916119140625005,-26.768927034757596,-6.5070696971988085,-45.444024766305915
1694132303.6560814,0.0021562890624999996,0.0038373437499999996,1.00823021484375,-0.6016845117187499,-0.1085194921874999,1.7700816015625,-26.290115285245875,-5.998926547296465,-45.61120093561743
1694132303.6760933,0.0017290429687499996,0.0036542382812499996,1.0091457421875,-0.4796141992187499,0.8985605859375001,-0.42718402343749995,-27.283134578336693,-5.8087048226870905,-47.3138284176731
1694132303.6960812,0.0025835351562499996,0.0034100976562499996,1.00761986328125,-0.11340326171874993,0.7612314843750001,-0.99175921875,-27.97544924679373,-7.010479689386309,-45.17996842035865
1694132303.716111,0.0014238671874999996,0.0034711328124999996,1.008047109375,0.2756958593750001,1.1427012109375,0.625672421875,-26.603600985197044,-6.53736200969881,-46.77174148456763
1694132303.73608,0.0020342187499999996,0.00414251953125,1.00774193359375,-0.13629144531249993,-0.8256825781249999,-0.30511371093749995,-27.486314856779078,-7.128154826593341,-45.698306372751226
1694132303.7561312,0.0019731835937499996,0.0030438867187499996,1.00871849609375,-0.6245726953124999,-1.55047505859375,1.419129453125,-26.470258307828882,-6.244267637628497,-46.06081164460181
1694132303.7760973,0.0016069726562499996,0.00414251953125,1.0067043359375,-0.4338378320312499,1.95904642578125,1.7700816015625,-26.391582558073022,-6.221907605401935,-45.94642909504127
1694132303.796129,0.0017290429687499996,0.004569765625,1.0079250390625,0.4206543554687501,-0.0780019140624999,0.38916119140625005,-27.65472468148611,-7.612704444269121,-45.25427813996314
1694132303.8161073,0.0021562890624999996,0.0037763085937499996,1.00877953125,0.10784917968750007,-0.5891713476562499,1.12158306640625,-26.69483783248709,-6.151016664483967,-45.86031785578346
1694132303.8361487,0.0015459374999999996,0.0038373437499999996,1.00780296875,-0.5253905664062499,1.737793984375,1.06054791015625,-27.324660262296657,-7.274358721612871,-46.929255890817636
1694132303.8561168,0.0019731835937499996,0.004325625,1.0076808984375,0.15362554687500007,0.1585093164062501,-0.24407855468749995,-26.147194732999782,-6.1577210468081836,-46.06185371393775
1694132303.8761144,0.0019731835937499996,0.0034711328124999996,1.00847435546875,-0.18969720703124993,-0.3221425390624999,-0.27459613281249995,-26.84283800424002,-6.404864984308185,-45.57525735578346
1694132303.8961127,0.0013628320312499996,0.0035932031249999996,1.00761986328125,-1.189147890625,-1.30633443359375,-0.93835345703125,-30.357182406217557,-7.225120675714436,-44.651659315744396
1694132303.9161148,0.0012407617187499996,0.0038373437499999996,1.00725365234375,-0.4109496484374999,1.0511484765625,-1.1901234765625,-26.50723375179861,-6.495983240167559,-47.57557482563208
1694132303.9361272,0.0020342187499999996,0.004569765625,1.0074367578125,0.3748779882812501,-0.7341298437499999,0.22894390625000005,-27.71187728671072,-6.720957357355058,-46.922197435129156
1694132303.9561262,0.0014238671874999996,0.0034711328124999996,1.008047109375,-0.13629144531249993,-1.30633443359375,-0.9307240625,-26.882991831266384,-6.026156349542559,-47.358336697336185
1694132303.976134,0.0014849023437499996,0.0037763085937499996,1.00810814453125,-0.4796141992187499,1.69964701171875,0.6714487890625,-26.67529911776541,-6.910630301690997,-44.66870406537818
1694132303.996129,0.0020952539062499996,0.0042035546875,1.008047109375,-0.5787963281249999,1.50128275390625,1.04528912109375,-26.96843605233572,-6.178593794855059,-46.28578601532935
1694132304.0161338,0.0009966210937499996,0.004325625,1.00700951171875,-0.037109316406249926,-0.4899892187499999,-0.42718402343749995,-26.976151315641385,-6.0103416849917775,-46.45374238178443
1694132304.0361357,0.0010576562499999996,0.00402044921875,1.00798607421875,-0.3575438867187499,-1.09271138671875,1.1902476171875,-27.289430262662865,-7.1196413431949015,-45.192370976755136
1694132304.05614,0.0012407617187499996,0.0035321679687499996,1.0079250390625,-1.12048333984375,-0.0551137304687499,0.96136578125,-26.713541528043727,-5.91748544280428,-46.11149232880591
1694132304.0761514,0.0018511132812499996,0.0031659570312499996,1.00877953125,0.4511719335937501,0.2500620507812501,0.007691464843750051,-26.80131353829763,-7.002599777276934,-45.44567106196021
1694132304.0961502,0.0014238671874999996,0.0022504296874999996,1.00823021484375,0.15362554687500007,-1.1155995703125,0.7782603125,-26.63949395211599,-6.189869827081622,-45.25029174213599
1694132304.1161547,0.0022173242187499996,0.0049359765625,1.0071926171875,-0.4109496484374999,1.62335306640625,-0.42718402343749995,-26.42709569735525,-6.51342799798006,-47.13830956855201
1694132304.1361556,0.0013017968749999996,0.0066449609375,1.0086574609375,0.10784917968750007,0.5170908593750001,-0.98412982421875,-27.7765712012615,-7.194043839776933,-46.374570477853766
1694132304.1561594,-0.0005292578125000004,0.00524115234375,1.00823021484375,-0.18969720703124993,0.4942026757812501,-2.1972035546875,-27.04739150875662,-6.063153029230059,-45.649199603219984
1694132304.176165,0.0025835351562499996,0.0035932031249999996,1.00829125,0.7868652929687501,0.8070078515625001,-0.7628773828125,-27.494081926725368,-7.159709301202716,-45.031784023385995
1694132304.1961734,0.00441458984375,0.0007855859374999996,1.0093898828125,1.10729986328125,2.8516855859375,0.51123150390625,-26.845704000333768,-6.2024623300113095,-46.73101174592017
1694132304.2161767,0.005208046875,-0.0001909765625000004,1.01213646484375,2.3127441992187503,3.04242044921875,-0.45007220703124995,-26.518727397794706,-5.865417425226154,-46.00889247834205
1694132304.236177,0.0016680078124999996,0.00487494140625,1.00871849609375,1.9694214453125,2.58465677734375,0.015320859375000051,-26.110261287565212,-6.881091940362871,-45.89243085505104
1694132304.2561753,-0.00034615234375000043,0.0076215234375,1.0091457421875,1.62609869140625,4.08001810546875,1.32757671875,-26.559436283781032,-6.004220362237873,-47.035424703683844
1694132304.2761836,-0.00889107421875,0.01134466796875,1.00639916015625,0.8860474218750001,2.897461953125,1.24365337890625,-28.13531682992361,-6.765061287530839,-45.536073612985604
1694132304.2961867,-0.0038251562500000004,0.00902533203125,1.0084133203125,1.25988775390625,2.63043314453125,2.395691953125,-27.276072414884545,-5.623806148858966,-45.979917131174076
1694132304.3161943,0.0087480859375,0.0066449609375,1.014150625,0.9165650000000001,7.414063515625,0.10687359375000005,-26.849755655240994,-6.026010416437092,-46.5437483280735
1694132304.3361955,0.0050859765625,0.010917421875,1.015859609375,1.06152349609375,6.21624857421875,-1.64025775390625,-27.530638605314234,-7.003305715753498,-45.49766762104225
1694132304.3562284,-0.007975546875,0.0156781640625,1.00774193359375,0.6953125585937501,5.9949961328125,-0.007567324218749949,-27.105245706144313,-5.995900199640216,-45.28559934443091
1694132304.3762157,-0.017252890625,0.0115277734375,1.004385,0.008667050781250074,3.62225443359375,-1.59448138671875,-28.392041285490016,-7.032753663019121,-44.51729758271216
1694132304.3962293,-0.018717734375,0.01036810546875,1.00774193359375,-0.4567260156249999,6.864747109375,2.34228619140625,-27.287673479337673,-6.014106393976153,-45.5730758716526
1694132304.4162133,-0.0129804296875,0.01427435546875,1.0103664453125,-0.9678954492187499,6.193360390625,4.4937754492187505,-27.550885718839627,-6.991172825616779,-44.9822515982151
1694132304.4362252,-0.00791451171875,0.00969671875,1.01616478515625,-0.014221132812499926,7.3988047265625,-0.52636615234375,-27.379330132047635,-6.22060552581209,-44.934055101022714
1694132304.4562325,-0.00919625,0.0098187890625,1.01433373046875,0.22991949218750007,12.8004160546875,3.1738901953125,-27.562325478116968,-5.791349848077716,-45.80300141718482
1694132304.4762273,-0.01682564453125,0.0115277734375,1.00993919921875,0.2528076757812501,11.40423685546875,2.28125103515625,-28.86278234615896,-6.977358720636309,-44.50073967963599
1694132304.4962304,-0.03220650390625,0.01024603515625,1.00542259765625,-0.3575438867187499,9.95465189453125,1.5869761328125,-27.754059325529077,-6.229400881769123,-45.315316604806895
1694132304.5162573,-0.053873984375,0.01061224609375,1.0025539453125,1.10729986328125,9.5350351953125,1.38098248046875,-29.287878433073026,-7.375767108819902,-44.5213936138401
1694132304.5362306,-0.04001900390625,0.008476015625,1.01286888671875,-0.4338378320312499,11.7933359765625,1.07580669921875,-28.257193637052517,-5.966301374933185,-45.537455436594
1694132304.5562444,-0.016276328125,0.0132367578125,1.018056875,-1.067077578125,13.98297220703125,0.83929546875,-28.65100782528494,-6.260148436456621,-45.39035777204322
1694132304.5762556,-0.02988716796875,0.007987734375,1.0172023828125,-0.23547357421874993,15.17315775390625,-0.03808490234374995,-30.183284554899195,-7.369841621026934,-44.58654855170631
1694132304.5962465,-0.0508222265625,0.007011171875,1.0084133203125,-0.09051507812499993,18.78949076171875,0.34338482421875005,-29.242858486783962,-6.06773408391756,-45.231684387155525
1694132304.616261,-0.07895943359375,0.008964296875,1.00224876953125,-0.13629144531249993,17.6832285546875,1.9837046484375,-31.198539939908965,-6.516080271417559,-44.643734761545176
1694132304.6362658,-0.07706734375,0.00627875,1.0054836328125,1.10729986328125,17.515381875,1.5259409765625,-30.10479605953787,-5.939940944269122,-44.96925340571021
1694132304.656265,-0.0669355078125,0.00878119140625,1.0121975,0.6953125585937501,21.09356791015625,3.36462505859375,-30.311906293302513,-6.378023785089435,-44.75695809723853
1694132304.676253,-0.06046578125,0.00969671875,1.0142726953125,1.06152349609375,23.18402201171875,3.4180308203125,-30.787832979703882,-7.224763353937091,-44.21947628717994
1694132304.6962602,-0.07554146484375,0.00621771484375,1.00975609375,0.5961304296875001,23.283204140625,2.4414683203125,-31.307632163175562,-6.296741085382402,-44.929461503732675
1694132304.7162583,-0.104899375,0.01134466796875,1.0023098046875,1.160705625,22.0167246484375,4.7836924414062505,-32.40243429549978,-7.081875837335528,-43.837888041452395
1694132304.7362633,-0.12217232421875,0.01598333984375,0.99785423828125,0.7716065039062501,24.31317240234375,3.15100201171875,-31.946480782560332,-6.09906537688631,-45.711889256296146
1694132304.7562683,-0.12693306640625,0.01403021484375,0.99529076171875,1.30566412109375,21.60473734375,2.14392193359375,-32.33309184652517,-7.17130660344881,-44.24630311518287
1694132304.7762816,-0.119303671875,0.0088422265625,0.99999046875,2.0151978125000003,21.59710794921875,3.09759625,-31.889561531095485,-6.671038337335529,-42.69305148444556
1694132304.7962828,-0.11448189453125,0.00951361328125,1.00487328125,0.4435425390625001,25.06085306640625,2.853455625,-33.06824896737478,-5.639774321710528,-44.560007898752204
1694132304.8162904,-0.1318769140625,0.02074408203125,1.00127220703125,0.7410889257812501,24.14532572265625,0.900330625,-34.62877017342948,-6.521160231378498,-43.64021130671119
1694132304.8362973,-0.15024849609375,0.0209271875,0.9940090234375,0.15362554687500007,22.51263529296875,1.33520611328125,-33.97653549899099,-5.972550631769122,-43.21128677240943
1694132304.8562887,-0.1621503515625,0.02013373046875,0.9897365625,0.3748779882812501,22.123536171875,1.28942974609375,-34.800290627653105,-6.8658486591128725,-42.75499652399635
1694132304.8762898,-0.182291953125,0.01793646484375,0.98418236328125,0.3214722265625001,19.2701426171875,1.8921519140625,-34.32579656710624,-5.571258684015216,-41.24752153083228
1694132304.8962936,-0.18552681640625,0.0134808984375,0.9857082421875,0.2528076757812501,16.72192484375,-1.11382953125,-34.55316888058279,-5.748334848077715,-42.927707652536384
1694132304.9162984,-0.17771431640625,0.01708197265625,0.993886953125,0.0010376562500000741,17.41619974609375,-0.06097308593749995,-35.63807590585135,-6.607401874444903,-41.83283324396705
1694132304.9363003,-0.18149849609375,0.02123236328125,0.99968529296875,-0.2812499414062499,21.35296732421875,1.53357037109375,-35.17166651962087,-6.068972050226153,-43.44655346430396
1694132304.9563377,-0.19248482421875,0.01879095703125,0.99382591796875,-0.5025023828124999,21.42926126953125,1.4343882421875,-36.70745216488455,-7.051742629327716,-42.189528753732674
1694132304.9763184,-0.20859810546875,0.01805853515625,0.984121328125,-0.3575438867187499,20.6129160546875,1.14447125,-36.093688900114046,-5.983327211847247,-42.597864813302984
1694132304.996313,-0.22996041015625,0.01390814453125,0.974355703125,-0.15917962890624993,17.12628275390625,1.6785288671875,-36.81054961691091,-6.243144072687091,-41.59478107685279
1694132305.0163329,-0.2283124609375,0.0105512109375,0.9749660546875,0.22991949218750007,17.29412943359375,-0.61791888671875,-40.42022004659842,-7.01635990032381,-41.48834851642798
1694132305.0363238,-0.22849556640625,0.01720404296875,0.98235130859375,-0.3117675195312499,17.1491709375,1.602234921875,-37.0338576429119,-6.309203325616779,-41.94933510822486
1694132305.056324,-0.227213828125,0.01555609375,0.98589134765625,0.4511719335937501,20.5671396875,2.639832578125,-38.41963807247733,-7.127459683038652,-40.38853611774635
1694132305.076329,-0.2347821875,0.018241640625,0.98601341796875,-1.04418939453125,22.63470560546875,1.71667583984375,-37.43523038094901,-6.55644642424959,-42.80215128754615
1694132305.0963283,-0.25266548828125,0.01866888671875,0.975332265625,-0.6703490624999999,21.03253275390625,2.1668101171875,-38.34015894381522,-7.156235992120685,-39.97372170807837
1694132305.1163404,-0.2688398046875,0.0181195703125,0.9661769921875,-0.4338378320312499,17.057618203125,1.2665415625,-38.22249854598807,-6.232593299249591,-40.861648098459234
1694132305.1363473,-0.27231880859375,0.01171087890625,0.96404076171875,0.3977661718750001,17.70611673828125,1.69378765625,-38.4082243217449,-5.95583992766756,-41.37990408234595
1694132305.1563482,-0.2679853125,0.0150678125,0.9702053125,0.6647949804687501,18.71319681640625,0.65619,-40.35978299276541,-7.422818398370685,-40.15118994452857
1694132305.1763453,-0.27341744140625,0.02111029296875,0.97167015625,-0.2888793359374999,18.6903086328125,-0.45770160156249995,-39.33917730319022,-6.135939336358966,-41.72399350055884
1694132305.196348,-0.284342734375,0.02123236328125,0.96867943359375,-0.3117675195312499,19.6363535546875,0.83929546875,-40.62257432748221,-6.9960939296206845,-39.97700023664282
1694132305.216351,-0.2976483984375,0.0200726953125,0.9642238671875,0.07733160156250007,20.30011087890625,2.3193980078125,-39.65536375399588,-6.418831488702715,-40.16600420649146
1694132305.2363555,-0.30167671875,0.01586126953125,0.96159935546875,-0.7466430078124999,19.315918984375,0.10687359375000005,-40.44874079672049,-6.375648015558184,-40.4154276619358
1694132305.256411,-0.3032636328125,0.016776796875,0.96147728515625,-1.04418939453125,17.58404642578125,1.12158306640625,-41.20354158224295,-7.799946226007402,-39.912508586618415
1694132305.2763717,-0.319987265625,0.02074408203125,0.9549465234375,-1.92919916015625,18.20965677734375,0.48071392578125005,-40.8274280179119,-6.911761780206623,-40.36088204609108
1694132305.296382,-0.33237740234375,0.02245306640625,0.951894765625,-2.9057616601562497,16.050538125,-0.45770160156249995,-41.750102517545685,-6.914462003351153,-39.21015450177955
1694132305.316376,-0.33286568359375,0.013847109375,0.94927025390625,-2.5624389062499997,14.19659525390625,-1.205382265625,-41.40546607162283,-6.08345228704256,-40.046258582101814
1694132305.3363779,-0.33097359375,0.009940859375,0.94609642578125,-0.7466430078124999,15.75299173828125,-0.6408070703125,-41.16570298739432,-6.039406332940997,-39.20890064277076
1694132305.356378,-0.32944771484375,0.01158880859375,0.9500637109375,0.9165650000000001,19.33880716796875,-0.40429583984374995,-41.488011675626744,-7.354734306085527,-38.04186207941626
1694132305.3763788,-0.3252362890625,0.0107953515625,0.95311546875,1.2064819921875,19.55243021484375,-2.029356875,-41.82714895016287,-6.274463536554278,-39.21571825788306
1694132305.3963819,-0.3479413671875,0.01830267578125,0.95036888671875,-1.89868158203125,17.87396341796875,1.236023984375,-43.10250127792166,-7.610315031183184,-37.33326285456275
1694132305.4163973,-0.36362740234375,0.01757025390625,0.94170189453125,-3.2185668359374997,16.7066660546875,2.75427349609375,-42.75187588668631,-6.554528279230059,-38.47729828327369
1694132305.43639,-0.36667916015625,0.01634955078125,0.93572044921875,-2.4403685937499997,13.23529154296875,3.5095835546875,-42.718349823698034,-7.120813976495684,-37.97066391535377
1694132305.4563932,-0.3672284765625,0.0098187890625,0.935781484375,-0.7771605859374999,15.5164805078125,2.2888804296875,-42.91535605807304,-7.208021575128497,-36.79866985553931
1694132305.4764094,-0.3558759375,0.0026776757812499996,0.93828392578125,1.33618169921875,21.71917826171875,2.66272076171875,-43.64474887862966,-6.718164466241777,-37.560169125070566
1694132305.4964118,-0.3723554296875,0.0105512109375,0.93803978515625,0.5961304296875001,21.59710794921875,1.6480112890625,-44.56490288094901,-7.177895188898029,-36.94005299286842
1694132305.5164053,-0.39560982421875,0.01976751953125,0.93059349609375,-3.0736083398437497,18.705567421875,3.01367291015625,-43.920562996183385,-6.198223324640216,-37.803037816110596
1694132305.53641,-0.40110298828125,0.0168988671875,0.92131615234375,-1.921569765625,19.09466654296875,2.334656796875,-44.24137560006522,-7.032630449640216,-37.138623236886964
1694132305.556428,-0.40098091796875,0.00676703125,0.91228294921875,-0.18969720703124993,19.00311380859375,-0.64843646484375,-43.675279145719514,-6.4474475844058405,-36.50557084638404
1694132305.576442,-0.4260663671875,0.016288515625,0.91386986328125,-0.044738710937499926,17.08050638671875,-0.51110736328125,-44.04670690365408,-6.476598694269123,-36.45008837238502
1694132305.5964239,-0.41868111328125,0.0044476953125,0.9155178125,2.7781372656250003,19.26251322265625,-2.7465199609375,-45.29018070675467,-7.188161007745684,-36.52136146418189
1694132305.616541,-0.40586373046875,0.0032880273437499996,0.9112453515625,4.731262265625,23.97747904296875,-2.76177875,-44.85923675399588,-6.854125013605059,-36.96809467145728
1694132305.6364481,-0.44114205078125,0.02037787109375,0.9096584375,3.2893066992187503,20.7349863671875,-2.54052630859375,-46.109687861417754,-7.494351122491778,-36.72139303522681
1694132305.6564534,-0.4573163671875,0.0251996484375,0.90227318359375,0.6190186132812501,16.63800150390625,-1.41137591796875,-45.611460271696075,-6.477226690362873,-35.60306532685279
1694132305.6764462,-0.44980904296875,0.0164105859375,0.89616966796875,0.4740601171875001,15.6843271875,1.09106548828125,-45.95022187875174,-6.774869652276934,-36.38434482038306
1694132305.69644,-0.44797798828125,0.0127484765625,0.89409447265625,1.18359380859375,15.7301035546875,-1.65551654296875,-47.078653687345486,-7.393331875909746,-34.130448294382084
1694132305.7164426,-0.446452109375,0.0044476953125,0.895254140625,2.9917603125000003,17.3475351953125,-2.46423236328125,-45.99514360616874,-7.074901629815997,-35.821143946359626
1694132305.736444,-0.45499703125,0.01195501953125,0.89812279296875,3.3350830664062503,17.94262796875,-0.93835345703125,-47.46425175289725,-7.6276045829409975,-34.71990391010474
1694132305.7564485,-0.46824166015625,0.0222699609375,0.89745140625,1.38195806640625,18.08758646484375,-1.88439837890625,-46.48880353744314,-6.410861894952717,-35.3610293617649
1694132305.7764506,-0.471842734375,0.02239203125,0.89775658203125,-1.1433715234375,17.82818705078125,1.35046490234375,-47.43126831051443,-6.891918703546466,-34.30434301154518
1694132305.7964535,-0.47727486328125,0.02391791015625,0.892324453125,-3.1499022851562497,15.0587168359375,0.32049664062500005,-47.419044552213656,-7.727112202569904,-34.93310727985572
1694132305.81647,-0.48411080078125,0.0178754296875,0.8843898828125,-3.7907714257812497,17.53827005859375,0.6714487890625,-47.18157192587088,-6.567971418878497,-34.94714232319068
1694132305.836477,-0.49009224609375,0.0105512109375,0.8775539453125,-1.3569945703125,18.92681986328125,0.54174908203125,-48.71132809884452,-7.508473968683185,-34.58650521344947
1694132305.8564706,-0.4863691015625,0.0095746484375,0.87334251953125,0.3519898046875001,19.4837656640625,-0.21356097656249995,-47.81526979855155,-6.799833260675372,-34.73594986738013
1694132305.8764708,-0.49351021484375,-0.0004961523437500004,0.8685207421875,2.3814087500000003,22.0167246484375,-0.73998919921875,-48.26003622653006,-7.6207056180972454,-32.35278700275611
1694132305.8964744,-0.51719185546875,0.0217816796875,0.8702297265625,1.42773443359375,21.3148203515625,0.43493755859375005,-48.63552134664725,-6.58544488079256,-33.12356827533912
1694132305.916475,-0.523112265625,0.01952337890625,0.8668117578125,-1.6316527734375,19.21673685546875,-0.62554828125,-49.15769227926444,-6.68219430706209,-33.857791175729744
1694132305.936477,-0.53013130859375,0.0189740625,0.85979271484375,-4.27905267578125,14.9061289453125,1.27417095703125,-50.2282395437908,-7.121787534112872,-32.99896612128639
1694132305.9564795,-0.53147408203125,0.02159857421875,0.85405541015625,-5.156433046875,16.081055703125,0.22894390625000005,-49.74100860519217,-6.493744848077716,-34.13470353327369
1694132305.9764857,-0.52622505859375,0.0078656640625,0.84648705078125,-0.8229369531249999,17.94262796875,-0.9154652734375,-50.45361232638358,-8.032252186456622,-32.74332853376197
1694132305.9965034,-0.529948203125,0.0073773828125,0.84648705078125,1.648986875,18.42327982421875,-1.02990619140625,-49.67586850448416,-7.452607542413653,-29.97497585053443
1694132306.016527,-0.5415448828125,0.00499701171875,0.850820546875,1.648986875,21.09356791015625,-2.029356875,-49.899524303556426,-6.610730894952716,-32.82345832746314
1694132306.036531,-0.55063912109375,0.00987982421875,0.84575462890625,0.9852295507812501,21.0706797265625,-0.04571429687499995,-51.1335711786785,-7.914272732355059,-32.123390094186774
1694132306.0565033,-0.5657148046875,0.016044375,0.8380031640625,-1.89868158203125,18.37750345703125,-0.49584857421874995,-50.31270111312674,-6.6823782860659975,-32.94998598334693
1694132306.0765088,-0.56235787109375,0.0110394921875,0.83244896484375,-2.2191161523437497,17.2254648828125,1.1902476171875,-51.54080741659354,-7.686345860284746,-31.517405861520757
1694132306.09651,-0.55759712890625,0.00756048828125,0.8301906640625,-0.6016845117187499,20.69683939453125,0.96136578125,-50.46696209017752,-6.915491064874591,-32.058012157785406
1694132306.1165116,-0.56534859375,0.0037152734374999996,0.82420921875,1.25988775390625,22.6881113671875,0.71722515625,-51.16149155697439,-6.758801236261311,-30.43059011567115
1694132306.1365156,-0.58054634765625,0.00572943359375,0.816885,3.1443482031250003,23.85540873046875,-1.80810443359375,-51.20731046847342,-8.182589953058184,-30.678682708078373
1694132306.1565459,-0.5808515234375,0.010429140625,0.8159084375,4.14379888671875,24.870118203125,-1.937804140625,-51.670982812589635,-7.113516657648029,-31.451679173044194
1694132306.1765308,-0.5937909765625,0.01610541015625,0.812734609375,0.6190186132812501,22.68048197265625,0.36627300781250005,-52.81872549520681,-7.936193760675373,-30.393325984811774
1694132306.1965349,-0.6078290625,0.0186078515625,0.81011009765625,-2.2191161523437497,19.987305703125,1.70141705078125,-51.7080062580242,-6.943785953546466,-29.303165118844976
1694132306.2165327,-0.6059980078125,0.01256537109375,0.80779076171875,-3.2185668359374997,17.91973978515625,0.86218365234375,-52.63928094466971,-7.96117106048006,-30.2416258975315
1694132306.2365355,-0.6084394140625,0.009940859375,0.80095482421875,-1.8757933984375,17.03473001953125,0.67907818359375,-52.411221498136506,-8.522313231378497,-28.104945992258063
1694132306.256539,-0.6213788671875,0.0173871484375,0.7925930078125,-1.4180297265625,16.45489603515625,-1.62499896484375,-52.918506858366,-7.1172526893863095,-29.489331573923103
1694132306.27654,-0.62070748046875,0.0034100976562499996,0.787343984375,1.10729986328125,16.24127298828125,-2.731261171875,-53.617305818449005,-8.127576665948808,-27.490019510812747
1694132306.2965453,-0.62827583984375,0.00768255859375,0.774160390625,2.0609741796875003,15.03582865234375,-2.94488421875,-52.75596059286307,-6.783754235284746,-28.561998696237556
1694132306.3165553,-0.64011666015625,0.0066449609375,0.77153587890625,0.5961304296875001,13.2581797265625,0.54174908203125,-53.327081173551555,-8.212962712823808,-27.54120216449927
1694132306.3365698,-0.647135703125,0.01360296875,0.76659203125,0.4511719335937501,10.73285013671875,-1.632628359375,-53.2906780290203,-7.067321149835528,-28.48535196357154
1694132306.3565624,-0.65439888671875,0.01927923828125,0.77116966796875,-1.3875121484375,10.832032265625,0.5798960546875,-53.685393696378696,-7.065590648858965,-28.316717656808844
1694132306.3765602,-0.6504316015625,0.02196478515625,0.7659816796875,-0.5787963281249999,11.86200052734375,0.87744244140625,-54.80807579867362,-8.130205179620685,-26.295679071481693
1694132306.3965771,-0.652995078125,0.0103070703125,0.7662258203125,-0.13629144531249993,11.8848887109375,-0.72473041015625,-54.09253183407401,-7.082104997980059,-28.032701926462163
1694132306.4165628,-0.65818306640625,0.00536322265625,0.76213646484375,-0.6245726953124999,9.63421732421875,1.10632427734375,-55.088795775968535,-8.02397821282381,-26.681153515695563
1694132306.436562,-0.6555585546875,0.00963568359375,0.75713158203125,-2.6387328515624997,10.39715677734375,0.18316753906250005,-53.95455864925955,-7.030608820733965,-27.1735881787815
1694132306.456575,-0.66038033203125,0.01757025390625,0.75932884765625,-4.73681634765625,9.84784037109375,1.10632427734375,-54.431551687833775,-7.288262403741778,-27.866019961374274
1694132306.4765766,-0.67014595703125,0.017265078125,0.75664330078125,-3.0812377343749997,8.55084330078125,-3.21191302734375,-54.50269144711111,-8.121857580499592,-26.488443740304938
1694132306.4965906,-0.6709394140625,0.00682806640625,0.74602318359375,0.3977661718750001,8.1159678125,-1.998839296875,-54.209956425870885,-7.6094221600894345,-27.425813464914313
1694132306.5165884,-0.68332955078125,0.0125043359375,0.73039818359375,-0.6550902734374999,10.73285013671875,-0.77050677734375,-55.00012338595389,-8.045387864190998,-26.679474001047126
1694132306.536593,-0.68979927734375,0.00841498046875,0.738515859375,0.13073736328125007,10.13012796875,0.32812603515625005,-54.194032827238075,-7.199590559991778,-27.45498409272193
1694132306.5565963,-0.68741890625,0.0032880273437499996,0.73729515625,-0.8992308984374999,6.21624857421875,0.48071392578125005,-54.07256313363455,-7.67750499065584,-26.125670317575445
1694132306.576593,-0.68662544921875,0.0134808984375,0.7376613671875,-2.7836913476562497,6.97918802734375,0.41967876953125005,-54.87849691952323,-8.018729307550371,-26.09467840180396
1694132306.5965955,-0.67344185546875,0.0095746484375,0.740957265625,-2.5624389062499997,6.6969004296875,0.31286724609375005,-53.99261478585623,-7.003508761163652,-27.25537301191138
1694132306.6166017,-0.6738691015625,0.004325625,0.7420558984375,-1.3875121484375,3.6146250390625,-0.38140765624999995,-55.40264670956228,-8.518923965753498,-25.343300393991463
1694132306.6366057,-0.6794843359375,0.0002973046874999996,0.73601341796875,0.2756958593750001,4.65985208984375,-1.48004046875,-53.79225848873709,-7.9172473334292786,-26.583110935617437
1694132306.6566098,-0.690104453125,0.00743841796875,0.72612572265625,-0.9678954492187499,4.728516640625,-2.242979921875,-55.016460964078895,-8.683581606378496,-25.73430046393775
1694132306.6766186,-0.69431587890625,0.004569765625,0.7286281640625,-1.1433715234375,1.21136576171875,0.49597271484375005,-54.429703416715604,-7.882169489190996,-26.532667005563724
1694132306.6966252,-0.68992134765625,0.0038373437499999996,0.73100853515625,-1.067077578125,-0.7570180273437499,-1.4190053125,-55.08100485311697,-7.948860456964433,-26.168242121774664
1694132306.7166252,-0.67978951171875,0.00402044921875,0.73991966796875,-1.311218203125,-0.4213246679687499,-1.296935,-56.33222218612479,-8.368841908624589,-26.928953817697515
1694132306.736629,-0.674967734375,0.0007855859374999996,0.74370384765625,-0.16680902343749993,0.2119150781250001,-2.29638568359375,-54.61529595968436,-7.42397846673006,-26.439480211862552
1694132306.7566571,-0.67319771484375,-0.0014727148437500004,0.73747826171875,0.7410889257812501,-1.5428456640625,-1.13671771484375,-55.559664302824004,-8.411759720636308,-26.1750719242649
1694132306.7766426,-0.68516060546875,0.0034100976562499996,0.73631859375,0.10784917968750007,-2.05401509765625,1.53357037109375,-54.51185430245779,-7.256881277765216,-27.019340756540288
1694132306.796652,-0.68247505859375,0.0008466210937499996,0.736562734375,0.10784917968750007,-2.43548482421875,-1.18249408203125,-54.54951999960135,-7.324554412530841,-26.66116754548072
1694132306.816651,-0.67698189453125,0.0033490624999999996,0.7435207421875,0.10784917968750007,-1.97772115234375,-0.80865375,-55.34881725338553,-8.438206867608965,-26.757072968820562
1694132306.8366485,-0.67197701171875,0.00682806640625,0.7469387109375,0.008667050781250074,-3.450194296875,1.44201763671875,-54.2949808415203,-7.169015128351154,-26.08085992475318
1694132306.8566995,-0.6731366796875,0.0009686914062499996,0.74510765625,0.7182007421875001,-1.5733632421875,-1.59448138671875,-55.233852271329866,-8.493629877374591,-26.53577635004615
1694132306.8766618,-0.6758222265625,0.00560736328125,0.74162865234375,0.9623413671875001,-2.1531972265625,-0.03808490234374995,-54.71290336434744,-7.501421029230061,-26.975986290109624
1694132306.8966568,-0.6789960546875,0.0024335351562499996,0.73991966796875,1.35144048828125,-5.22784322265625,0.99951275390625,-54.60473408016775,-7.378867411065996,-26.865715402658452
1694132306.9166584,-0.67771431640625,0.004325625,0.7393703515625,1.7710571875,-5.25073140625,0.41967876953125005,-54.62391962740897,-8.13557755266756,-27.08526827985572
1694132306.9366598,-0.67295357421875,0.00890326171875,0.74138451171875,1.59558111328125,-5.15154927734375,-0.69421283203125,-54.15800190096854,-7.8121091801089655,-26.48754786640357
1694132306.9566717,-0.66990181640625,0.008476015625,0.74614525390625,1.0386353125,-9.797850546875,-1.44189349609375,-55.018859821134555,-8.147856991632402,-26.881618507638922
1694132306.9766736,-0.6697187109375,0.0110394921875,0.751211171875,0.4969483007812501,-9.2180165625,0.49597271484375005,-54.019244717130654,-7.395983524347248,-27.077948206003178
1694132306.9966726,-0.6694745703125,0.00402044921875,0.75078392578125,2.1143799414062503,-9.36297505859375,-0.57214251953125,-53.71224582040213,-8.008417963312091,-27.209275440622317
1694132307.0166738,-0.66477486328125,-6.890625000000039e-05,0.75261498046875,3.7775879492187503,-9.16461080078125,-1.6173695703125,-53.73529449081229,-7.3066070096988085,-27.171197015573494
1694132307.0370576,-0.6572675390625,0.004325625,0.75566673828125,3.8538818945312503,-11.4000233984375,-0.52636615234375,-53.78351557369804,-7.2168326552066215,-28.597693569772712
1694132307.0573967,-0.649577109375,0.00853705078125,0.76115990234375,2.8239136328125003,-14.070311484375,-0.93835345703125,-54.142896393888456,-8.008060641534748,-26.77709241205787
1694132307.0768733,-0.6527509375,0.01232123046875,0.7632961328125,1.7710571875,-17.22125142578125,0.10687359375000005,-53.231640193571074,-6.851852682550372,-28.551577278390877
1694132307.0968633,-0.65421578125,0.0149457421875,0.76518822265625,1.67187505859375,-18.01470845703125,-0.73998919921875,-53.675152169157016,-7.952612057550372,-27.578406236520756
1694132307.116842,-0.64707466796875,0.0166547265625,0.76323509765625,3.6097412695312503,-18.037596640625,0.03057964843750005,-53.05759788912771,-7.059041520440997,-28.208485501657478
1694132307.136838,-0.640299765625,0.0054242578125,0.7631740625,5.00592046875,-21.67681783203125,0.54174908203125,-52.56890807882498,-6.745407436456622,-29.227304727243414
1694132307.1568465,-0.63621041015625,0.00682806640625,0.769765859375,5.86041265625,-26.0637196875,-0.27459613281249995,-52.989427857877715,-7.675099126886309,-29.24773728425025
1694132307.176849,-0.62339302734375,0.01439642578125,0.782461171875,6.61572271484375,-26.66644185546875,-0.99175921875,-52.43559164730643,-6.5857548685855285,-30.678249876901617
1694132307.196846,-0.6184491796875,0.023124453125,0.79393578125,4.66259771484375,-28.2762441015625,-0.13726703124999995,-52.848361089811306,-7.884040931085527,-29.68475408905982
1694132307.2168517,-0.60996529296875,0.0322797265625,0.79936791015625,3.5563355078125003,-33.85333150390625,-0.62554828125,-51.17784170834158,-7.0582426688784965,-30.910872785226815
1694132307.236851,-0.59690376953125,0.0249555078125,0.80534935546875,1.82446294921875,-36.4244374609375,2.61694439453125,-50.86226102377127,-6.681722249444903,-31.566873670969002
1694132307.256855,-0.59464546875,0.008231875,0.80864525390625,1.50402837890625,-38.94976705078125,0.24420269531250005,-53.777777459928494,-7.76572849798006,-31.119923743844975
1694132307.2768593,-0.5666913671875,0.012870546875,0.8282375390625,2.1372681250000003,-36.90508931640625,-0.015196718749999949,-49.9766801753826,-6.734827932062092,-32.34847041938208
1694132307.2968626,-0.5453290625,0.02660345703125,0.84990501953125,0.6190186132812501,-37.69854634765625,0.63330181640625,-50.59830211654471,-7.387798058038653,-33.162548464181896
1694132307.316865,-0.52866646484375,0.0298383203125,0.85429955078125,-0.3117675195312499,-34.57049458984375,3.250184140625,-49.33857086788748,-6.740740969171466,-33.81089173285865
1694132307.336874,-0.520915,0.0215375390625,0.85466576171875,-0.3346557031249999,-34.02117818359375,0.10687359375000005,-48.98087325155448,-7.181128644464435,-33.35287951777075
1694132307.3569021,-0.51951119140625,0.0195844140625,0.85454369140625,-0.9755248437499999,-40.3612050390625,3.99023541015625,-48.1270628415203,-6.999581238214433,-34.420217406808845
1694132307.37688,-0.51755806640625,0.01586126953125,0.85222435546875,-1.067077578125,-42.96282857421875,4.8523569921875005,-47.88398833566092,-5.872507546808185,-35.06361662311743
1694132307.3968806,-0.49436470703125,0.016288515625,0.8638820703125,-1.12048333984375,-44.526854453125,1.724305234375,-48.02726333273123,-6.886999094659748,-35.15830523884009
1694132307.4168847,-0.473307578125,0.02867865234375,0.881338125,0.4740601171875001,-46.18243306640625,2.05999859375,-46.318862614469516,-6.271954825616778,-35.54914890180396
1694132307.436932,-0.44236275390625,0.02904486328125,0.8941555078125,-0.8458251367187499,-44.42767232421875,2.5635386328125,-46.27756610787772,-7.158303370538653,-35.59051166364478
1694132307.4568903,-0.42185494140625,0.01329779296875,0.90886498046875,-0.4490966210937499,-41.87945455078125,0.7630015234375,-45.222322943815215,-6.123754762628497,-36.49829641413306
1694132307.4769,-0.413248984375,0.019950625,0.91405296875,-1.58587640625,-40.20098775390625,1.24365337890625,-43.93528149679373,-6.371648869562091,-37.27949974738501
1694132307.4968977,-0.3994550390625,0.02037787109375,0.92009544921875,-0.7237548242187499,-41.566649375,0.6104136328125,-44.869367667081825,-7.176518269952716,-36.69035768891334
1694132307.5168982,-0.380534140625,0.02928900390625,0.93163109375,-0.9221190820312499,-36.836424765625,1.0071421484375,-43.31790680245779,-5.841489311944903,-39.12097130512427
1694132307.5369008,-0.34665962890625,0.0234906640625,0.948965078125,-0.4796141992187499,-32.1214589453125,-0.32037249999999995,-43.73814552194022,-7.003828566339434,-38.13345485224341
1694132307.5569232,-0.34189888671875,0.02123236328125,0.94756126953125,-0.8458251367187499,-31.9993886328125,0.32812603515625005,-42.09712746224783,-5.759714534601153,-38.81603560029029
1694132307.5769224,-0.34659859375,0.016776796875,0.9405422265625,-0.7466430078124999,-32.3655995703125,0.29760845703125005,-41.667835326627724,-6.226447086847247,-38.79210337275123
1694132307.5969186,-0.3393964453125,0.01946234375,0.94865990234375,-0.4109496484374999,-31.9078358984375,-0.961241640625,-41.67384131820487,-6.571800913995686,-39.33911602692603
1694132307.6169238,-0.32126900390625,0.02428412109375,0.9556789453125,-0.13629144531249993,-31.61791890625,-3.0822133203125,-40.61089521053885,-6.2725452958316215,-39.0564452223606
1694132307.6369214,-0.3049726171875,0.0322797265625,0.96623802734375,0.9394531835937501,-30.05389302734375,-1.07568255859375,-41.261841340055454,-6.85988833001131,-39.18547357428931
1694132307.6568975,-0.2873944921875,0.03685736328125,0.9644680078125,-0.3346557031249999,-28.3983144140625,0.32812603515625005,-39.639273202238066,-5.933057733819904,-40.49667804987525
1694132307.6769392,-0.291666953125,0.01464056640625,0.95702171875,-0.4338378320312499,-28.29913228515625,-0.35089007812499995,-39.31342033090018,-6.477008952081623,-38.910444031320566
1694132307.6969328,-0.2920331640625,0.0046918359375,0.959463125,-0.4262084374999999,-33.21246236328125,0.14502056640625005,-38.54923124227713,-6.971394083917561,-39.868836884103764
1694132307.7169273,-0.27048775390625,0.0215375390625,0.96709251953125,-0.3575438867187499,-31.1906728125,-1.99120990234375,-38.67414333224295,-5.509831060480059,-41.61947182709693
1694132307.7369375,-0.25278755859375,0.02501654296875,0.97832298828125,0.7182007421875001,-29.207030234375,-3.24243060546875,-38.375486984342565,-6.440291015069903,-41.30119881830787
1694132307.7569423,-0.22678658203125,0.03801703125,0.99065208984375,1.33618169921875,-27.986327109375,-5.3099965234374995,-36.92778806991385,-5.5782705761050595,-41.89996597724341
1694132307.7769415,-0.2175702734375,0.0232465234375,0.98698998046875,0.4969483007812501,-25.24737447265625,-3.6162709375,-36.59950158114432,-6.578716616144121,-40.85583663337134
1694132307.7969768,-0.218913046875,-0.0012896093750000004,0.97771263671875,-0.9678954492187499,-25.97979634765625,-0.61791888671875,-36.27807977804373,-5.563333946222247,-42.216275099802004
1694132307.8169594,-0.2146405859375,0.0088422265625,0.97710228515625,-0.7771605859374999,-27.742186484375,-1.1596058984375,-35.648448272916774,-5.811939593683184,-42.20014619550513
1694132307.8369539,-0.19700142578125,0.01988958984375,0.98625755859375,-0.6474608789062499,-29.59612935546875,-0.33563128906249995,-36.18424444027517,-6.699682536554278,-42.418353168405524
1694132307.8569536,-0.173991171875,0.024589296875,0.99608421875,-0.21258539062499993,-26.2926015234375,-1.510558046875,-34.82839973190116,-5.460432020929278,-43.493080523630134
1694132307.8769584,-0.15586373046875,0.0208051171875,1.00395775390625,-0.15917962890624993,-21.98199361328125,-1.9530629296875,-35.00851896090506,-6.2884309642886524,-42.85069679084205
1694132307.896967,-0.1470136328125,0.01293158203125,1.00298119140625,-0.4567260156249999,-21.96673482421875,-1.2206410546875,-34.18783736776541,-5.712384565362873,-43.66022126288795
1694132307.916969,-0.14707466796875,0.0161664453125,1.0018215234375,-0.7466430078124999,-18.708983359375,0.51123150390625,-33.808262280729274,-5.317821342706621,-44.3852830023899
1694132307.936975,-0.15037056640625,0.02257513671875,0.99895287109375,-0.9678954492187499,-17.1373280859375,0.686707578125,-34.26845825460623,-6.243685325616779,-43.20194889740943
1694132307.9569972,-0.14768501953125,0.020194765625,0.994375234375,-1.067077578125,-17.5340566015625,0.17553814453125005,-33.26537819491385,-5.710829269464434,-43.46900235468482
1694132307.9769874,-0.13352486328125,0.012138125,0.99443626953125,-1.46380609375,-18.37329,2.79242046875,-33.79946269759939,-7.022299626398028,-43.08382436896705
1694132307.9970033,-0.1116132421875,0.010917421875,1.0074367578125,-0.06762689453124993,-16.11498921875,-0.40429583984374995,-32.56439031014822,-5.845762713312091,-44.50091745392799
1694132308.0170014,-0.099772421875,0.014335390625,1.011953359375,-0.2583617578124999,-11.16351216796875,-0.28222552734374995,-31.872079861173614,-6.009110137140215,-43.616309851877205
1694132308.0369937,-0.10666939453125,0.01525091796875,1.007558828125,-0.3575438867187499,-11.35424703125,-1.39611712890625,-31.811208780118925,-6.764896102960528,-44.84451896540259
1694132308.0569973,-0.12046333984375,0.02190375,0.99858666015625,-1.08996576171875,-11.262694296875,-0.18304339843749995,-31.68470368050955,-6.016469330499589,-45.41507657587623
1694132308.077024,-0.12290474609375,0.01781439453125,0.9954738671875,-0.5787963281249999,-11.20928853515625,1.24365337890625,-32.30478293087576,-6.912338469171466,-43.68387369452857
1694132308.0970056,-0.10984322265625,0.01427435546875,0.99443626953125,-0.8000487695312499,-14.985838828125,-1.327452578125,-31.191363923551542,-5.73397812688631,-44.448326644845956
1694132308.1170347,-0.0898847265625,0.0100629296875,1.00047875,-0.8229369531249999,-14.65014546875,-2.26586810546875,-31.355925159757593,-6.455304839776934,-43.9595538675022
1694132308.1370118,-0.06833931640625,0.0037763085937499996,1.00871849609375,0.2756958593750001,-11.781493125,-0.84680072265625,-30.782366235074974,-5.9290552723941214,-43.64501188276099
1694132308.1570153,-0.06785103515625,0.01207708984375,1.0120754296875,0.3519898046875001,-9.69866841796875,-2.02172748046875,-30.41011940487478,-5.735616946222247,-44.30403646564673
1694132308.1770144,-0.08420845703125,0.01561712890625,1.0025539453125,-0.8687133203124999,-12.1934804296875,-1.25878802734375,-31.74794074410818,-6.547193858819902,-43.110138680246344
1694132308.1970177,-0.0850019140625,0.0164105859375,0.99846458984375,-1.3875121484375,-13.94061177734375,-1.41137591796875,-30.30764231307791,-5.855064370050371,-43.78185918891334
1694132308.2170243,-0.07676216796875,0.01036810546875,1.0015773828125,-0.11340326171874993,-12.01800435546875,0.20605572265625005,-31.259326593351343,-6.476929640558185,-44.4739129332981
1694132308.237027,-0.061686484375,0.01024603515625,1.0067043359375,0.13073736328125007,-13.89483541015625,-3.1279896875,-30.17501515402029,-5.952865179620684,-44.2237839732151
1694132308.257029,-0.05588814453125,0.01403021484375,1.0092678125,0.2985840429687501,-12.12481587890625,-0.7933949609375,-30.127446503141385,-5.851412540460528,-45.030643222482674
1694132308.2770317,-0.05247017578125,0.012870546875,1.00920677734375,0.20703130859375007,-9.66815083984375,-2.12853900390625,-30.528626101530055,-6.51549281438631,-44.11052692926979
1694132308.2970366,-0.04844185546875,0.01610541015625,1.00945091796875,-0.3041381249999999,-10.33953755859375,-2.3803090234375,-29.399914214078883,-5.688182309503497,-44.492558418649665
1694132308.3170438,-0.046549765625,0.0171430078125,1.006338125,-1.04418939453125,-11.28558248046875,0.54174908203125,-29.852215711149196,-6.765536501886309,-44.5527096529026
1694132308.337045,-0.0552167578125,0.01647162109375,0.99956322265625,-1.46380609375,-12.5596913671875,-1.13671771484375,-28.680368067594507,-5.552683237237872,-44.687364030832285
1694132308.357054,-0.0503339453125,0.0117719140625,0.99846458984375,-1.77661126953125,-13.1090077734375,0.5188608984375,-28.904169106290798,-5.738857175714434,-44.58939539997291
1694132308.3770883,-0.037272421875,0.00743841796875,1.004140859375,-0.4567260156249999,-16.389647421875,-0.32800189453124995,-28.746606812345483,-6.778542419366778,-45.21950385077857
1694132308.3970609,-0.0203046484375,0.01073431640625,1.01018333984375,-1.1128539453125,-15.199461875,-2.09039203125,-27.75294552108572,-5.825567115655842,-44.174490920846935
1694132308.417061,-0.0218915625,0.018241640625,1.00725365234375,-1.89868158203125,-13.68121236328125,-0.7018422265625,-28.54473634457205,-6.906058062921465,-44.971398481271734
1694132308.4371085,-0.017252890625,0.01537298828125,1.008535390625,-2.8294677148437497,-13.8566884375,-1.3427113671875,-27.786133323453885,-5.900510276300372,-46.0295225270481
1694132308.4571044,-0.00498482421875,0.01573919921875,1.0135402734375,-4.12646478515625,-12.04852193359375,-1.12145892578125,-27.16771244332693,-6.634189363214434,-45.16659431904029
1694132308.4770937,0.0102129296875,0.01067328125,1.01909447265625,-4.2561644921875,-6.71557515625,-0.51110736328125,-27.143848074308377,-6.820095778253497,-45.92674007258033
1694132308.4970863,0.027668984375,0.0020673242187499996,1.0257473046875,-1.2654418359375,-1.374998984375,-1.3427113671875,-26.85251097787283,-6.406801292901934,-46.59601501386451
1694132308.517379,0.01393607421875,-0.0037920507812500004,1.01665306640625,0.6190186132812501,0.2805796289062501,-0.6865834375,-27.881193004240018,-6.743037379327715,-45.79868105451393
1694132308.537122,-0.00016304687500000043,0.0046918359375,1.00877953125,0.18414312500000007,-0.6578358984374999,0.007691464843750051,-26.996293522306424,-6.319663526300372,-45.935805120553965
1694132308.5571454,-0.0035810156250000004,0.005058046875,1.00383568359375,-1.08996576171875,-0.4671010351562499,1.83874615234375,-26.928195404752714,-7.184059241632404,-44.57865271271705
1694132308.5771492,-0.00913521484375,0.01366400390625,1.0030422265625,-2.1657103906249997,-3.41967671875,-0.6865834375,-26.6645487658367,-6.209671198663654,-45.11201067328834
1694132308.597117,0.0009966210937499996,0.0066449609375,1.00884056640625,-1.799499453125,-1.741209921875,-1.4037465234375,-26.848098130826934,-6.113201803644122,-46.00088659845924
1694132308.617124,0.00880912109375,-0.0020220312500000004,1.01152611328125,-0.3880614648437499,0.0669565820312501,-0.16778460937499995,-27.930108813322047,-6.928549658136308,-44.78172901252173
1694132308.637117,0.0020342187499999996,0.0025556054687499996,1.00859642578125,0.19940191406250007,-0.3984364843749999,-0.83154193359375,-26.716669203824978,-5.898201044366779,-46.52524978144263
1694132308.6571145,0.0009355859374999996,0.004569765625,1.00725365234375,0.031555234375000074,-1.18426412109375,-0.6713246484375,-27.315660808439233,-6.688231098565997,-45.7160125348606
1694132308.6771183,0.0008745507812499996,0.00487494140625,1.00700951171875,-0.21258539062499993,-0.3984364843749999,0.86218365234375,-26.652542608610133,-5.8834458793277165,-45.206391132394785
1694132308.6971197,0.0015459374999999996,0.00414251953125,1.00725365234375,-0.23547357421874993,0.5628672265625001,-0.64843646484375,-26.62780263412283,-6.151722581964435,-45.527114519479746
1694132308.7171443,0.0013017968749999996,0.004325625,1.00749779296875,-0.06762689453124993,-1.04693501953125,-1.449522890625,-27.667635632169702,-6.665513744562091,-45.169446956735605
1694132308.7370014,0.00044730468749999957,0.0044476953125,1.00786400390625,-0.11340326171874993,-0.6807240820312499,-1.296935,-25.992272437223413,-5.823398193780841,-45.94893544574928
1694132308.7569969,0.0008745507812499996,0.0044476953125,1.0074367578125,-0.23547357421874993,0.2042856835937501,-0.22881976562499995,-27.516268664274197,-7.012462748956622,-45.29070201484107
1694132308.776994,0.0022173242187499996,0.004081484375,1.00749779296875,-0.09051507812499993,1.3868418359375,-1.6478871484375,-26.19280021981619,-6.071152011651932,-45.83662140387916
1694132308.7969975,0.0014849023437499996,0.0049359765625,1.0074367578125,-0.3041381249999999,-0.3221425390624999,-1.388487734375,-26.185599488492947,-6.939424699640214,-45.50057417365455
1694132308.816998,0.0019121484374999996,0.0017621484374999996,1.00603294921875,-0.3117675195312499,-0.2992543554687499,0.33575542968750005,-26.262158480802515,-7.449587071710528,-44.69911096418189
1694132308.837003,0.0020952539062499996,0.0021283593749999996,1.005605703125,0.3291016210937501,0.4942026757812501,-1.73181048828125,-26.165392901945097,-6.769048583429278,-45.42753394404029
1694132308.8570035,-0.00016304687500000043,0.007011171875,1.0074367578125,-0.15917962890624993,-0.8256825781249999,-0.31274310546874995,-27.658400550260527,-7.561723993585527,-44.499559434152594
1694132308.8770285,0.0024614648437499996,0.0038983789062499996,1.00688744140625,0.2528076757812501,0.5399790429687501,1.5564585546875,-26.17464950314138,-6.452744226983966,-46.38185326508521
1694132308.8970506,0.0013628320312499996,0.0032880273437499996,1.006582265625,0.2528076757812501,0.6620493554687501,0.25183208984375005,-26.299163172086697,-7.136478077081623,-45.87144035614966
1694132308.9170177,-0.00016304687500000043,0.00633978515625,1.00566673828125,-0.5025023828124999,0.3950205468750001,1.57934673828125,-26.244452284513454,-6.773648931573809,-45.657384797067635
1694132308.93702,0.0013017968749999996,0.0038373437499999996,1.00603294921875,-0.014221132812499926,-0.3221425390624999,0.27472027343750005,-26.570643535123807,-6.840911123956621,-46.070100180368414
1694132308.9570255,0.0013017968749999996,0.0044476953125,1.006093984375,-0.4872435937499999,0.3492441796875001,0.5341196875,-26.99537505624197,-7.120885431573809,-45.18983706171607
1694132308.9770257,0.0014238671874999996,0.00426458984375,1.00554466796875,-0.3117675195312499,1.5241709375,1.388611875,-26.097984251066187,-6.3588833524722475,-45.42187726459693
1694132308.997028,0.0016069726562499996,0.0044476953125,1.005605703125,-0.21258539062499993,-1.6954335546875,0.46545513671875005,-27.092200541959745,-7.203149093683184,-45.62290377680396
1694132309.0170388,0.0007524804687499996,0.0051801171875,1.006338125,-0.6245726953124999,-1.3292226171875,0.65619,-26.00061498605154,-6.14142370940584,-45.49933520234107
1694132309.0370338,0.0013017968749999996,0.0035932031249999996,1.00566673828125,-0.5787963281249999,0.6620493554687501,1.7548228125,-26.00949586044119,-6.576811950128496,-45.9736385369358
1694132309.0570414,0.0026445703124999996,0.0029828515624999996,1.00566673828125,-0.2888793359374999,-0.4671010351562499,1.113953671875,-27.66028836764334,-7.226803747003498,-46.10837216425513
1694132309.077056,0.0020342187499999996,0.004081484375,1.00664330078125,-0.2583617578124999,-0.5891713476562499,0.808777890625,-26.57379702523611,-5.982198316339434,-45.93545932282447
1694132309.0970526,0.0016680078124999996,0.0036542382812499996,1.00530052734375,-0.18969720703124993,0.5170908593750001,0.83166607421875,-27.249161602018336,-7.342642352472245,-45.411710831735604
1694132309.1170564,0.0015459374999999996,0.0037763085937499996,1.0053615625,-0.4033202539062499,0.8527842187500001,1.36572369140625,-26.28929731234549,-6.6455857543277155,-45.5257056207981
1694132309.137057,0.0009355859374999996,0.0042035546875,1.00584984375,0.22991949218750007,-1.35211080078125,-0.41955462890624995,-26.027900410123802,-6.270626211847247,-45.13839672272681
1694132309.1570802,0.0020952539062499996,0.0038983789062499996,1.00591087890625,-0.2583617578124999,-0.6120595312499999,-0.64843646484375,-26.212461792814235,-7.4536211815738085,-44.836146917795176
1694132309.177078,0.0023393945312499996,0.00402044921875,1.00652123046875,0.08496099609375007,0.0822153710937501,0.20605572265625005,-26.391173051603296,-6.452874564386309,-46.291919800241466
1694132309.1970806,0.0015459374999999996,0.0037152734374999996,1.006582265625,0.08496099609375007,-0.3755483007812499,-0.57214251953125,-27.223338482633572,-7.173635059991778,-46.09553201886939
1694132309.2170947,0.0020342187499999996,0.0028607812499999996,1.0062160546875,-0.3575438867187499,-0.6807240820312499,-0.06097308593749995,-26.291146623502712,-6.236403957940997,-46.08258185138892
1694132309.2370903,-0.0005292578125000004,0.004569765625,1.005117421875,-0.2583617578124999,0.2271738671875001,-0.52636615234375,-26.675856510343532,-6.891799262140216,-44.80715889399146
1694132309.2571056,0.0016680078124999996,0.00475287109375,1.00603294921875,-0.4033202539062499,-0.7112416601562499,-0.778136171875,-26.172497613126737,-6.514667694757403,-44.53259622614478
1694132309.2770813,0.0006304101562499996,0.0039594140625,1.00578880859375,-0.2812499414062499,-2.2447499609375,0.7935191015625,-26.203159032926543,-6.055937885675372,-45.642394175485606
1694132309.297085,0.0019731835937499996,0.0038983789062499996,1.00615501953125,-0.3117675195312499,-0.7799062109374999,1.24365337890625,-27.829727078336695,-7.232731118097249,-45.065844299386974
1694132309.3170867,0.0016069726562499996,0.0042035546875,1.00664330078125,-0.3117675195312499,0.4179087304687501,-0.13726703124999995,-26.744680013639428,-6.2692399511050585,-45.224786189645755
1694132309.3370965,0.0017290429687499996,0.0038373437499999996,1.00652123046875,0.3062134375000001,-0.9706410742187499,0.59515484375,-26.997165813444116,-7.2151316952456845,-46.34414156891822
1694132309.3571022,0.0016680078124999996,0.004569765625,1.00566673828125,-0.5025023828124999,-1.35211080078125,0.9766245703125,-26.53882570382498,-6.708865595148028,-45.96088624994849
1694132309.377097,0.0017900781249999996,0.0035932031249999996,1.00627708984375,-0.3041381249999999,-0.1542958593749999,-0.13726703124999995,-26.321929683561304,-5.856368264093341,-45.5144503449192
1694132309.3971057,0.0015459374999999996,0.00475287109375,1.0057277734375,-0.2583617578124999,-0.7265004492187499,0.09924419921875005,-27.92405788107107,-6.932596870538653,-45.48112411640357
1694132309.4171016,0.0013628320312499996,0.004569765625,1.00566673828125,0.031555234375000074,-1.30633443359375,0.35101421875000005,-26.227533460905057,-6.110722947687091,-45.284669762277595
1694132309.437104,0.0008745507812499996,0.00487494140625,1.0064601953125,-0.2583617578124999,-0.9935292578124999,1.07580669921875,-27.36714696005056,-7.4995111527652165,-45.06180241840552
1694132309.4571083,0.0011797265624999996,0.0037152734374999996,1.00615501953125,-0.18969720703124993,0.5170908593750001,1.41150005859375,-26.490997394010524,-6.167524143976154,-45.86934968476295
1694132309.4771128,0.0017290429687499996,0.0034711328124999996,1.0067043359375,-0.014221132812499926,-0.6120595312499999,-0.06860248046874995,-25.95052442562674,-5.965627201593341,-44.990448590646736
1694132309.4971142,0.0019121484374999996,0.0035321679687499996,1.0064601953125,-0.2583617578124999,-0.3221425390624999,0.25183208984375005,-25.87266002010916,-7.252284875421466,-44.89938951972389
1694132309.5171247,0.0029497460937499996,0.0026166406249999996,1.0054836328125,0.3748779882812501,0.2348032617187501,-1.93017474609375,-26.144653756437286,-6.219570942804277,-45.531556602365484
1694132309.537125,0.01015189453125,0.0024335351562499996,1.006582265625,0.4969483007812501,-1.069823203125,-3.3263539453125,-27.442807787565208,-7.3274126307925584,-44.312961769235606
1694132309.5571263,0.0050859765625,0.0037152734374999996,1.0062160546875,0.2604370703125001,-0.4442128515624999,-1.70129291015625,-26.37780170919607,-6.363508659112872,-46.605365076242435
1694132309.5771315,-0.01194283203125,0.00756048828125,1.007070546875,0.13073736328125007,0.1813975000000001,-0.45770160156249995,-25.990243659025175,-7.12161127923006,-44.35554552558325
1694132309.5971532,0.0008135156249999996,0.005546328125,1.00664330078125,-0.13629144531249993,-0.1085194921874999,0.808777890625,-26.32646313082693,-6.043936579523028,-45.20812602973365
1694132309.6171436,0.0014238671874999996,0.007499453125,1.00578880859375,-0.21258539062499993,-1.2071523046875,-1.21301166015625,-26.59508571664236,-6.405133138605059,-46.421878477609624
1694132309.6371796,0.0017290429687499996,0.00499701171875,1.00652123046875,-0.15917962890624993,-0.6807240820312499,-0.09149066406249995,-27.67341164364431,-6.979024375909748,-47.18590330719947
1694132309.6571615,0.0016069726562499996,0.00481390625,1.006582265625,0.13073736328125007,0.3034678125000001,-1.24352923828125,-25.98288193539236,-6.1201886893863096,-47.782484070627206
1694132309.6771572,0.0023393945312499996,0.0037763085937499996,1.00713158203125,0.8402710546875001,0.4484263085937501,-0.41192523437499995,-26.982213586881617,-7.0148311976870925,-45.59576411603736
1694132309.697156,0.0016680078124999996,0.0044476953125,1.00688744140625,0.5503540625000001,-0.5662831640624999,0.71722515625,-25.839197178312283,-6.242457289972246,-45.585330764841075
1694132309.71716,0.00032523437499999957,0.007987734375,1.007070546875,0.13073736328125007,-0.6120595312499999,-0.9307240625,-26.08102594051931,-6.063191663995685,-44.86114175702857
1694132309.7371635,0.0014849023437499996,0.00621771484375,1.00639916015625,-0.16680902343749993,-0.1771840429687499,-1.47241107421875,-26.781070838468533,-6.847840634210529,-45.30313557917213
1694132309.7571855,0.0022783593749999996,0.00499701171875,1.006338125,-0.5559081445312499,-1.191893515625,1.44964703125,-26.508332471403104,-5.8962485243472464,-46.13362445356177
1694132309.777176,-0.00040718750000000043,0.00707220703125,1.00639916015625,-0.3346557031249999,-1.04693501953125,-0.49584857421874995,-27.44387076608084,-7.089943967218341,-45.42435014228248
1694132309.7971756,-0.00040718750000000043,0.0066449609375,1.00786400390625,0.3519898046875001,-0.2534779882812499,0.63330181640625,-26.325136451871852,-6.355057543390217,-46.4791273461399
1694132309.8171787,-0.0011396093750000004,0.007499453125,1.00749779296875,0.2756958593750001,-0.7036122656249999,0.67907818359375,-26.290842023893337,-6.1459161854800595,-46.43059379499244
1694132309.8371832,0.0036821679687499996,0.0042035546875,1.0073146875,-0.4109496484374999,-0.7341298437499999,1.174988828125,-25.736615179655054,-6.683359445245685,-45.06063224970435
1694132309.857185,-0.0010785742187500004,0.00481390625,1.006582265625,-0.2812499414062499,-0.9706410742187499,2.2278452734375,-25.860446323453882,-6.4064052733706855,-45.79629014533424
1694132309.8771899,-0.0011396093750000004,0.00676703125,1.007558828125,-0.18206781249999993,0.0135508203125001,2.86108501953125,-27.310990754728298,-6.6708424545230285,-45.29236885285377
1694132309.8971953,0.0005083398437499996,0.00841498046875,1.00713158203125,-0.2888793359374999,-0.4442128515624999,1.45727642578125,-26.143498444303493,-6.439742028253498,-45.84310319758033
1694132309.917202,0.0072832421875,0.00633978515625,1.0069484765625,-0.9450072656249999,-1.2376698828125,1.602234921875,-25.939639919523216,-6.150947427179278,-45.77366774921607
1694132309.9372742,-0.0030316992187500004,0.01183294921875,1.00700951171875,-0.3575438867187499,0.6391611718750001,3.433289609375,-25.65115734530447,-6.684949020440996,-45.48420345026587
1694132309.9572117,0.0031328515624999996,-0.0004961523437500004,1.008535390625,0.008667050781250074,-1.4055165625,1.86926373046875,-26.0865334656658,-6.270597549737871,-47.29510530426978
1694132309.9772253,0.00575736328125,0.00426458984375,1.00713158203125,-0.09051507812499993,-0.3221425390624999,1.5869761328125,-27.020059850431423,-7.004419466730059,-45.58506717084693
1694132309.9972281,0.0119219140625,0.0020062890624999996,1.007558828125,-0.13629144531249993,-0.0093373632812499,-1.296935,-26.162575592374786,-6.617081955011308,-45.766731013742444
1694132310.0172367,0.0014849023437499996,0.00804876953125,1.00780296875,0.10784917968750007,-0.5128774023437499,0.15264996093750005,-26.556376167325954,-7.0649560370425615,-44.97065386774635
1694132310.0372334,0.0023393945312499996,0.00719427734375,1.00688744140625,-0.4338378320312499,-0.7036122656249999,-0.24407855468749995,-26.36828103536795,-6.4068162367495916,-45.41060144635963
1694132310.057229,0.0011186914062499996,0.0066449609375,1.00774193359375,-0.5559081445312499,0.1356211328125001,-0.57214251953125,-26.10907317648123,-6.139041542413653,-46.16556811518287
1694132310.0772312,0.0008135156249999996,0.006034609375,1.00835228515625,-0.5025023828124999,-0.7036122656249999,0.12976177734375005,-27.687552331754667,-7.402321491144121,-45.550441187692634
1694132310.0972538,0.0025224999999999996,0.00585150390625,1.0079250390625,-0.059997499999999926,-1.4055165625,-0.15252582031249995,-25.826249014982206,-6.394318539483966,-46.28970411860084
1694132310.117241,0.0023393945312499996,0.005546328125,1.00823021484375,0.2756958593750001,-0.1542958593749999,-1.10620013671875,-27.37818407882498,-7.079862758233965,-46.63997198481177
1694132310.137247,0.0016069726562499996,0.00609564453125,1.00798607421875,0.054443417968750074,0.0898447656250001,-0.04571429687499995,-26.35060763802908,-6.6930995800113084,-46.407284614328375
1694132310.1572497,0.0020952539062499996,0.00579046875,1.007070546875,-0.037109316406249926,-0.1314076757812499,0.96899517578125,-25.864047944913846,-6.643429325128496,-46.542973685129155
1694132310.1772492,0.0017900781249999996,0.00621771484375,1.008047109375,0.13073736328125007,1.310547890625,1.48779400390625,-27.815445370084742,-7.1465057074527145,-46.629289927316655
1694132310.197254,0.0022173242187499996,0.0061566796875,1.00749779296875,0.10784917968750007,0.1813975000000001,-0.62554828125,-26.482457291837672,-6.433227836847246,-45.20396896125221
1694132310.2172582,0.0024614648437499996,0.00585150390625,1.00810814453125,0.17651373046875007,0.8833017968750001,-0.23644916015624995,-27.564762706510525,-7.488122241144121,-45.72917916816138
1694132310.2372603,0.0027056054687499996,0.00621771484375,1.00798607421875,-0.8000487695312499,-1.069823203125,-0.11437884765624995,-26.471717238859156,-6.5560801698550595,-46.26516913251685
1694132310.2572649,0.0005693749999999996,0.00633978515625,1.00829125,0.054443417968750074,-0.7341298437499999,0.31286724609375005,-26.464879601774197,-6.385191435968341,-44.89624238056373
1694132310.277267,0.0014238671874999996,0.0051801171875,1.00829125,-0.16680902343749993,0.5933848046875001,-0.6408070703125,-26.287012561735136,-6.87272065032381,-45.687839802560795
1694132310.2972703,0.0019731835937499996,0.00579046875,1.0084133203125,0.2985840429687501,-0.1008900976562499,-0.45770160156249995,-26.55512944296072,-6.2001125648745905,-45.75378010297584
1694132310.3172743,0.0024614648437499996,0.0059125390625,1.00810814453125,0.22991949218750007,-1.09271138671875,-0.8849476953125,-27.50451873299978,-6.851522429620685,-46.077513767282475
1694132310.3372803,0.0033159570312499996,0.005058046875,1.008535390625,0.10784917968750007,-0.4594716406249999,-0.34326068359374995,-26.310176378629663,-6.047045267023028,-46.182736877756106
1694132310.3573081,0.0018511132812499996,0.00450873046875,1.0092678125,0.9165650000000001,-0.4442128515624999,0.51123150390625,-26.118241604215605,-6.54434076409334,-45.4369155036106
1694132310.3772914,0.0015459374999999996,0.00633978515625,1.00945091796875,0.7182007421875001,-1.2376698828125,-0.16778460937499995,-26.310699738004665,-6.413281778741778,-44.69874300275611
1694132310.3972907,-0.00040718750000000043,0.00597357421875,1.00993919921875,1.2064819921875,-1.68780416015625,-0.38903705078124995,-26.242643753873804,-6.094528532159748,-46.96000770929908
1694132310.4172971,-0.00040718750000000043,0.0066449609375,1.01018333984375,1.160705625,-0.6349477148437499,0.99951275390625,-27.60468041464041,-6.99266013079256,-45.25790174176978
1694132310.4372966,0.0018511132812499996,0.0056683984375,1.01073265625,3.2130127539062503,-1.01641744140625,1.33520611328125,-25.93566386483572,-5.944548072198809,-46.21844689301489
1694132310.4572997,-0.0029706640625000004,-0.0004351171875000004,1.02147484375,5.00592046875,-0.9706410742187499,1.70141705078125,-27.283940096647243,-6.753240193780841,-46.14874612885475
1694132310.477303,0.00917533203125,-0.00598931640625,1.02287865234375,8.67565923828125,0.8756724023437501,1.0071421484375,-25.83302662655447,-5.911039830987871,-46.32226257258033
1694132310.4973056,0.01247123046875,-0.007637265625,1.0277004296875,12.27673345703125,0.5399790429687501,0.42730816406250005,-26.348837241422636,-5.7415916513003715,-46.13901002778052
1694132310.51731,0.0036821679687499996,0.00682806640625,1.02068138671875,15.48107916015625,0.3492441796875001,-0.24407855468749995,-27.295631355314235,-6.165166304620684,-45.78448404999732
1694132310.5373175,0.00417044921875,0.01134466796875,1.021718984375,17.487609921875,0.3492441796875001,-1.0070180078125,-26.12852703207205,-5.123193026788653,-45.70529589106177
1694132310.5573173,0.017415078125,0.00829291015625,1.02129173828125,20.37915044921875,1.0206308984375,-2.0446156640625,-27.910702113370874,-5.806212254327716,-44.71571682038306
1694132310.577318,-0.00529,0.02806830078125,1.0223293359375,21.699035703125,-0.8714589453124999,-2.7465199609375,-26.18176868966482,-4.3503982040347475,-45.097100398874275
1694132310.597324,0.0026445703124999996,0.0474164453125,1.00591087890625,20.86743169921875,0.3721323632812501,-2.67785541015625,-26.27895285592459,-3.560392477472247,-45.155239097848884
1694132310.617358,-0.01066109375,0.06627630859375,1.00017357421875,19.69250494140625,0.3263559960937501,0.96899517578125,-26.524078699308376,-4.1538842650699035,-45.613184874948494
1694132310.637372,-0.00852486328125,0.06896185546875,1.0057277734375,20.600402890625,0.4713144921875001,2.22021587890625,-26.047168008268333,-2.8101447689761536,-45.415319257516856
1694132310.65735,0.00966361328125,0.05773138671875,1.0174465234375,23.85815435546875,0.3492441796875001,0.27472027343750005,-27.424173882535914,-3.402932522394122,-45.22909544391822
1694132310.6773503,0.008137734375,0.059257265625,1.02275658203125,26.2308960546875,1.188477578125,-1.68603412109375,-26.77904527218435,-2.505095267999591,-45.664151163278575
1694132310.6973627,0.00832083984375,0.07543158203125,1.0179348046875,29.09191900390625,0.4484263085937501,-2.914366640625,-26.55853309579275,-2.6373178851870906,-44.77340756525611
1694132310.7173994,0.0025224999999999996,0.0912396875,1.0101223046875,29.48864751953125,0.1813975000000001,0.46545513671875005,-26.97921419625662,-1.7464550717105283,-45.66444723298072
1694132310.7373664,0.0037432031249999996,0.10741400390625,1.00591087890625,30.41943365234375,0.3797617578125001,-1.68603412109375,-26.735028338224392,-0.9316472714175599,-46.236901313180915
1694132310.757367,-0.0012006445312500004,0.1244428125,1.000722890625,30.58728033203125,2.226075234375,-1.06042376953125,-27.56120684469412,-1.1708601752261534,-44.70805212824439
1694132310.7773736,0.0010576562499999996,0.12999701171875,1.00456810546875,31.76220708984375,0.7841196679687501,-1.04516498046875,-26.18880891854666,0.42815695465665904,-45.53450477631568
1694132310.7973833,-0.0012006445312500004,0.14403509765625,1.00237083984375,32.3954468359375,-0.2229604101562499,-0.015196718749999949,-26.968790825284938,-0.021951519952716048,-45.005379065988535
1694132310.817376,-4.097656250000043e-05,0.16295599609375,0.996328359375,32.44885259765625,2.348145546875,0.39679058593750005,-26.06574154806326,1.0875470972347838,-44.73637966498755
1694132310.837385,-0.0090741796875,0.18285345703125,0.991933828125,32.4259644140625,0.2500620507812501,2.35754498046875,-26.282226843839627,2.0674714990902525,-46.04246509589576
1694132310.8573835,-0.0122480078125,0.1936566796875,0.985586171875,31.71643072265625,0.6162729882812501,3.7232066015625,-27.447189457365017,1.3922055860043154,-44.715411176218026
1694132310.8773847,0.008626015625,0.1924359765625,1.00017357421875,33.93658453125,0.1127329492187501,0.32049664062500005,-26.033053759244897,2.651403406316815,-45.113831231027596
1694132310.897411,0.007161171875,0.19139837890625,0.99504662109375,36.24829107421875,1.7225351953125,0.87744244140625,-27.876657627042754,3.022573239324628,-45.56989257221412
1694132310.9173942,0.0024004296874999996,0.21764349609375,0.982168203125,36.4390259375,0.3721323632812501,1.602234921875,-26.498395828824975,4.493069477605877,-45.232311633981695
1694132310.937389,-0.0005902929687500004,0.23326849609375,0.97685814453125,36.09570318359375,0.5170908593750001,0.36627300781250005,-26.263210405363065,5.1632455000668145,-46.154093043405524
1694132310.9574146,-0.0083417578125,0.26818060546875,0.9725246484375,35.92785650390625,2.53888041015625,2.37280376953125,-26.090762285490015,4.719577035223065,-44.98640878022193
1694132310.9774034,-0.00028511718750000043,0.2761762109375,0.96636009765625,36.8815308203125,2.470215859375,2.08288677734375,-26.198822071134547,5.987340055242596,-45.489792030344
1694132310.997399,0.0109453515625,0.26598333984375,0.9737453515625,36.90441900390625,-0.0093373632812499,-1.27404681640625,-27.613781136564235,5.983189320379315,-43.65499975800514
1694132311.0174,0.012043984375,0.2952191796875,0.962148671875,36.98071294921875,3.16449076171875,-1.3732289453125,-26.409331662687283,7.69271759235197,-45.129954292795176
1694132311.037405,-0.0021772070312500004,0.3232953515625,0.9583644921875,37.43847662109375,1.64624125,0.07635601562500005,-26.4541573106365,7.405014949773846,-43.248329169137946
1694132311.0574093,-0.01121041015625,0.3457562890625,0.9409084375,36.58398443359375,1.11981302734375,0.63330181640625,-26.699424055509546,8.40103713532072,-43.603412834787356
1694132311.077432,-0.00608345703125,0.35497259765625,0.9376125390625,35.6303101171875,1.40973001953125,1.3123179296875,-26.29317372433279,9.185323160711347,-43.129473139963146
1694132311.0974157,0.0026445703124999996,0.35143255859375,0.94780541015625,36.17199712890625,3.21026712890625,0.29760845703125005,-27.47825831881521,9.501709199285564,-42.671528830636966
1694132311.117435,0.0013628320312499996,0.35448431640625,0.9409084375,36.4390259375,2.104004921875,-0.33563128906249995,-26.49497969357107,10.426335347723064,-42.61172241559791
1694132311.1374245,-0.008463828125,0.379081484375,0.93120384765625,35.69897466796875,-0.4899892187499999,-2.2277211328125,-26.988582110929475,10.402221733465254,-41.97255938239478
1694132311.1574266,-0.0019941015625000004,0.40392279296875,0.92192650390625,36.072815,1.69964701171875,0.17553814453125005,-26.347569535367946,11.615456626531657,-42.81132917475318
1694132311.1774294,-0.00828072265625,0.41796087890625,0.91252708984375,35.69897466796875,1.86749369140625,0.89270123046875,-26.131737592985136,11.89447619782072,-42.7872442190647
1694132311.1974301,0.0009966210937499996,0.41869330078125,0.91386986328125,35.2183228125,0.7383433007812501,-0.66369525390625,-27.399769645475367,12.810273278875407,-42.791915780099856
1694132311.2174335,-0.0044355078125,0.4246137109375,0.90898705078125,34.7758179296875,-0.5891713476562499,-0.95361224609375,-26.588762006681424,13.825879214422283,-43.75828188349342
1694132311.2374375,-0.006998984375,0.44982123046875,0.89934349609375,33.66955572265625,1.554688515625,-1.25878802734375,-27.602118413297635,13.474593639715252,-42.62755642963599
1694132311.2574427,-0.0120038671875,0.463554140625,0.89116478515625,32.47174078125,-0.2992543554687499,-0.78576556640625,-26.421241696378686,15.055399009344159,-39.26856724238013
1694132311.2774458,-0.0019330664062500004,0.4768598046875,0.88493919921875,31.96057134765625,-0.2305898046874999,-0.06097308593749995,-26.514102719938258,15.076791166570722,-42.43578533466529
1694132311.2974477,0.0015459374999999996,0.500419375,0.87206078125,29.85485845703125,2.0277109765625,0.93847759765625,-28.189227656583768,15.347100803777753,-40.867454226633065
1694132311.3174517,-0.0038861914062500004,0.50646185546875,0.8609523828125,28.92407232421875,1.62335306640625,1.09106548828125,-26.65706030685232,16.318919618719157,-41.10327248127173
1694132311.337456,-0.00413033203125,0.49840521484375,0.87126732421875,27.8178101171875,-0.1085194921874999,-0.015196718749999949,-28.131344093229277,15.967465645574626,-41.39860967145729
1694132311.3574574,-0.0154218359375,0.51360296875,0.8638820703125,25.07885748046875,1.0511484765625,-0.38140765624999995,-27.226650904874784,17.14379989606291,-41.23572802228736
1694132311.3774602,-0.0121259375,0.53636908203125,0.84959984375,22.33990484375,0.1813975000000001,0.16027935546875005,-26.65537335714529,17.54556703717619,-40.64052663617896
1694132311.3974657,0.0006304101562499996,0.54076361328125,0.84697533203125,22.3856812109375,0.6391611718750001,2.47961529296875,-26.693532066984158,17.35777921686369,-39.829830762887944
1694132311.4174666,0.0021562890624999996,0.55126166015625,0.84355736328125,22.56115728515625,1.83697611328125,2.57116802734375,-26.795813879728296,18.05606117780119,-40.04458971601295
1694132311.4374778,-0.0018109960937500004,0.53246283203125,0.85564232421875,22.72900396484375,1.432618203125,-0.73998919921875,-27.820044925016383,17.741037051336345,-40.22302484003638
1694132311.457476,-0.0031537695312500004,0.5386273828125,0.85515404296875,21.87451177734375,0.3721323632812501,0.95373638671875,-26.384051922574976,19.16043311090666,-40.330032676340096
1694132311.4774804,-0.01182076171875,0.5772016015625,0.8217678125,19.715393125,0.0364390039062501,0.15264996093750005,-26.701681670377713,18.154930849676187,-39.967814140695566
1694132311.4974809,0.00661185546875,0.5630414453125,0.83891869140625,21.0123901953125,0.0135508203125001,0.04583843750000005,-26.74774056429861,19.006593172430094,-38.927160092599856
1694132311.5174844,2.005859374999957e-05,0.57616400390625,0.82805443359375,20.21130376953125,0.0135508203125001,-1.86913958984375,-27.412406790006617,19.679315978582437,-40.37275558735084
1694132311.5374901,-0.014323203125,0.59758734375,0.80681419921875,16.022766171875,-0.5662831640624999,1.68615826171875,-28.116972502653105,18.994567517644942,-38.99552958613013
1694132311.5575087,-0.004069296875,0.599296328125,0.80565453125,13.398254453125,-1.97772115234375,-1.1596058984375,-26.616220225065213,20.306608489324628,-39.92310291559791
1694132311.5775065,0.0012407617187499996,0.602226015625,0.8043117578125,11.323059140625,0.9519663476562501,-1.754698671875,-27.69868333395193,19.814858077215252,-38.752439618356696
1694132311.5975053,0.0024004296874999996,0.60350775390625,0.8069973046875,11.200988828125,0.1585093164062501,-0.5492543359375,-26.445523983976347,20.189604389715253,-36.23495266181373
1694132311.6175227,0.0021562890624999996,0.59801458984375,0.8145656640625,10.85766607421875,-1.1155995703125,-2.33453265625,-26.823657439786892,20.892070097234782,-38.60843283222388
1694132311.6375303,-0.009440390625,0.61565375,0.79735375,6.95904546875,-0.1314076757812499,0.7782603125,-27.683379174161896,19.84612383063322,-38.6160406207981
1694132311.6575215,-0.011881796875,0.62572455078125,0.7852687890625,3.2435303320312503,0.3263559960937501,2.334656796875,-26.136570023405053,20.563273035711347,-38.94387524640845
1694132311.6775212,0.0034990624999999996,0.6162641015625,0.79143333984375,3.4113770117187503,-0.5128774023437499,0.49597271484375005,-27.81298258358572,19.8045991279965,-38.62679564899634
1694132311.6975245,0.014973671875,0.59337591796875,0.82109642578125,5.68493658203125,1.310547890625,0.65619,-26.36649318087576,20.597105544988693,-39.061978743234626
1694132311.717561,-0.00449654296875,0.60875677734375,0.808828359375,5.44079595703125,0.9519663476562501,-0.839171328125,-26.588875815519312,20.905253145086345,-38.171196372018805
1694132311.7375414,-0.0039472265625,0.6206586328125,0.79460716796875,2.5568848242187503,-0.2992543554687499,1.27417095703125,-26.959825273405055,20.339297317937906,-38.528178617990484
1694132311.757569,-0.011393515625,0.63451361328125,0.777090078125,-2.0512694726562497,-1.09271138671875,1.358094296875,-26.871204630704863,20.744302216375406,-37.60458108600807
1694132311.7775378,0.0020342187499999996,0.62450384765625,0.78325462890625,-3.4627074609374997,2.20318705078125,-0.47296039062499995,-27.619102612760525,20.442465493230877,-38.366189888376226
1694132311.7975428,0.010335,0.610038515625,0.80254173828125,-4.1035766015625,0.5628672265625001,-1.60211078125,-26.301323046354273,20.163936732000412,-38.46911697004127
1694132311.8175454,-0.00675484375,0.62401556640625,0.79155541015625,-7.0180053125,-0.4671010351562499,-0.22119037109374995,-26.705332468229276,20.312863273504316,-38.547820512277596
1694132311.8375514,-0.00583931640625,0.62133001953125,0.7886867578125,-10.80981439453125,1.40973001953125,-1.541075625,-26.704099340909938,17.921056039617593,-37.881728039743415
1694132311.8577607,-0.00889107421875,0.62743353515625,0.77898216796875,-17.7144164453125,1.07403666015625,-0.99938861328125,-26.285768427213647,20.622226284734783,-38.7412531450901
1694132311.8777993,-0.0046796484375,0.633476015625,0.779775625,-20.14056390625,0.1356211328125001,-1.0985707421875,-27.509274882780055,19.41011074469572,-38.66441259955786
1694132311.8977978,0.00795462890625,0.609061953125,0.80119896484375,-21.94873041015625,1.6920176171875,-1.51818744140625,-27.009663100187282,19.427960863836347,-38.638037758981696
1694132311.9178023,0.00038626953124999957,0.597343203125,0.809804921875,-25.2827758203125,1.188477578125,0.99951275390625,-26.7504822736492,18.47177527545744,-38.33044729694556
1694132311.9378104,-0.01328560546875,0.60912298828125,0.78862572265625,-33.3394164453125,-0.0093373632812499,0.46545513671875005,-26.950538444181426,19.016672519109783,-38.78020911274146
1694132311.957662,-0.00998970703125,0.58617376953125,0.811269765625,-36.52087396484375,3.08819681640625,0.78588970703125,-26.97904607186697,17.904266035711345,-39.85602137812232
1694132311.9775898,0.01454642578125,0.58129095703125,0.84099388671875,-36.2691039453125,2.104004921875,-0.05334369140624995,-27.208343102506618,16.987208612859785,-39.99008336261939
1694132311.997593,0.015461953125,0.54711126953125,0.85783958984375,-35.80371087890625,-0.8256825781249999,-2.9601430078125,-26.299934617765405,17.119106982976973,-40.48133924799537
1694132312.0175931,-0.01377388671875,0.53710150390625,0.83281517578125,-40.90014642578125,0.5933848046875001,1.45727642578125,-27.898345066617946,15.714542153387129,-40.03227000617408
1694132312.037596,-0.02976509765625,0.531425234375,0.8619289453125,-42.07507318359375,1.8140879296875,0.808777890625,-26.14468638107107,16.245160098211343,-40.694319029489506
1694132312.0576003,0.01112845703125,0.50487494140625,0.85967064453125,-44.50122064453125,0.3950205468750001,-1.1748646875,-25.814529374723413,15.695010209539472,-41.344276353342046
1694132312.0776038,-0.004557578125,0.504081484375,0.86198998046875,-47.8352660546875,-1.83276265625,1.4954233984375,-27.966194061490995,13.690130707586347,-41.458677368967045
1694132312.0976074,-0.01487251953125,0.4600141015625,0.89079857421875,-45.44726556640625,-0.7341298437499999,-0.900206484375,-26.447303386930443,14.05353858405119,-41.90898337104225
1694132312.1176095,0.02187064453125,0.41234564453125,0.944082265625,-38.6494750390625,0.9061899804687501,-1.449522890625,-27.548370129728298,12.667886482000409,-43.03929510260963
1694132312.1376307,0.0026445703124999996,0.4133832421875,0.9329738671875,-33.995544375,0.8985605859375001,-0.06860248046874995,-26.622703207853302,12.726635211980877,-42.747315219919194
1694132312.1576316,-0.0021772070312500004,0.4187543359375,0.91863060546875,-33.60644525390625,-0.6807240820312499,-5.4778432031249995,-26.503076078092555,11.954667933172283,-41.737827236154544
1694132312.1776416,-0.00535103515625,0.42040228515625,0.9127101953125,-34.636413515625,-1.13848775390625,-3.59338275390625,-26.822485362760528,10.611013864812909,-42.86337497260474
1694132312.1976283,-0.0020551367187500004,0.40026068359375,0.923086171875,-34.1176146875,-0.9248647070312499,-2.2277211328125,-26.630989654996853,11.189081979070721,-43.96502380097388
1694132312.2176287,0.0202226953125,0.37462591796875,0.94670677734375,-30.08166498046875,-1.38262837890625,-3.9367055078125,-27.548452833219507,9.996645589422283,-44.058497076852795
1694132312.2376354,-0.0278730078125,0.3645551171875,0.9467678125,-28.70837396484375,1.53180033203125,0.75537212890625,-26.9613532793865,10.151860605535564,-43.46390163886451
1694132312.2576382,-0.03293892578125,0.38079046875,0.9305324609375,-30.76068109375,2.08111673828125,2.4109507421875,-26.192749069425563,8.78851121735197,-43.019603432931895
1694132312.2776234,0.00789359375,0.3413617578125,0.95476341796875,-28.2734984765625,0.3721323632812501,0.15264996093750005,-26.140802644742948,9.38390560797697,-44.077306245187756
1694132312.297658,-0.00608345703125,0.35094427734375,0.94219017578125,-29.3721312890625,-0.7799062109374999,0.96899517578125,-26.481856849088647,9.205685763250408,-44.24446457245826
1694132312.3176584,-0.01768013671875,0.350761171875,0.9381008203125,-32.50781244140625,1.3563242578125,3.44091900390625,-27.769832692838648,7.534493680730877,-43.65501253510474
1694132312.3376548,0.00014212890624999957,0.33293890625,0.94011498046875,-35.68164056640625,1.859864296875,2.52539166015625,-26.380096374967554,7.884396734441815,-44.18610449628639
1694132312.3576593,-0.0105390234375,0.32659125,0.93620873046875,-40.068542421875,-0.9706410742187499,3.80712994140625,-27.40878870028494,6.724349211980878,-44.006664100290294
1694132312.3776562,-0.021159140625,0.32848333984375,0.923574453125,-47.33935541015625,-0.2687367773437499,6.1951304296875005,-26.76936595492361,6.90799131061369,-44.7662322133274
1694132312.3976603,-0.01755806640625,0.30345892578125,0.9432277734375,-48.63635248046875,1.6004648828125,7.8964854101562505,-26.318231227628686,5.944537594793378,-44.410829825021736
1694132312.4176636,0.03908255859375,0.22472357421875,1.00127220703125,-41.83093255859375,1.45550638671875,0.29760845703125005,-27.43078732137869,3.77011700592619,-44.80728931794165
1694132312.43767,0.03590873046875,0.20995306640625,1.0013332421875,-39.9006957421875,-0.6578358984374999,-1.57922259765625,-26.475578432096462,4.48048322858244,-45.47242503278541
1694132312.457765,-0.0056562109375,0.2435834375,0.95799828125,-45.0886840234375,0.7307139062500001,-1.510558046875,-27.241929515470485,2.6809660684261902,-44.620666688547125
1694132312.4776788,-0.0127362890625,0.2463910546875,0.94975853515625,-49.4221801171875,1.5241709375,2.18969830078125,-25.916607346158962,3.046202976141034,-45.26766135260963
1694132312.4976802,-0.00016304687500000043,0.18566107421875,0.98827171875,-48.1709594140625,-0.8485707617187499,0.6104136328125,-26.52412445895193,1.9263537490902525,-45.33874137482643
1694132312.5176833,0.01271537109375,0.1509320703125,1.00334740234375,-44.37915033203125,0.4026499414062501,-0.9154652734375,-26.242244815153104,0.8068425293636903,-46.010204332956306
1694132312.5377095,0.00551322265625,0.12816595703125,1.01268578125,-42.07507318359375,2.3939219140625,-2.43371478515625,-26.35027062692068,1.0633168638363466,-44.97857818097877
1694132312.5576875,0.00551322265625,0.1166303125,1.00920677734375,-40.48815912109375,-0.7570180273437499,-4.2037343164062495,-27.01254160653494,-0.9529521596011534,-45.74513805768775
1694132312.5776913,-0.01682564453125,0.14061712890625,0.98271751953125,-44.279968203125,0.3950205468750001,1.27417095703125,-26.094455734464628,-0.9860095140933409,-45.87358779059791
1694132312.5976968,-0.0242108984375,0.13280462890625,0.98552513671875,-45.47778314453125,0.1585093164062501,2.7161265234375,-26.41783972091482,-2.630909703546466,-44.795438411691656
1694132312.6177037,0.00490287109375,0.0732953515625,1.010488515625,-42.71594232421875,0.9061899804687501,2.79242046875,-26.454765378995877,-2.426048165460528,-45.50428755658912
1694132312.6377368,0.00710013671875,0.04778265625,1.019765859375,-39.48107904296875,-0.9706410742187499,0.7782603125,-26.279922147916775,-3.400473001886309,-45.93064446759986
1694132312.657716,-0.0110273046875,0.05565619140625,1.00877953125,-39.0156859765625,0.0822153710937501,4.0741587500000005,-27.361905976041772,-4.870523976495684,-46.03636191706275
1694132312.6777155,-0.01743599609375,0.033866640625,1.01756859375,-35.66638177734375,-0.1771840429687499,6.0272837500000005,-26.696114979093533,-4.477525370538654,-46.23135789850806
1694132312.697718,-0.00010201171875000043,-0.0036699804687500004,1.03496361328125,-30.8369750390625,-3.41967671875,5.5008555273437505,-26.934504837247832,-6.182733283624591,-45.37925154548072
1694132312.7177181,0.0397539453125,-0.06153130859375,1.0921535546875,-3.7144774804687497,4.33941751953125,-6.8587636132812495,-26.269763205533962,-5.706293034601154,-46.0366564185276
1694132312.7377217,0.0346269921875,-0.09729791015625,1.07353783203125,-1.1128539453125,1.69964701171875,-7.3012684960937495,-26.352183676969513,-5.998055992120685,-45.41678554902076
1694132312.757741,-0.013834921875,0.01262640625,1.014394765625,-0.7771605859374999,1.11981302734375,-2.55578509765625,-27.215641186979276,-6.394746981866778,-45.831164326730715
1694132312.7777336,-0.00522896484375,0.0014569726562499996,1.0073146875,0.10784917968750007,0.4484263085937501,-2.60156146484375,-26.187144140714626,-5.813533996515216,-46.31802304633521
1694132312.7977312,-0.00022408203125000043,0.0033490624999999996,1.00554466796875,-0.4567260156249999,0.5170908593750001,-0.51110736328125,-27.977175564786894,-6.617450543878498,-45.6558561352024
1694132312.817736,-0.00034615234375000043,0.00487494140625,1.00591087890625,-0.06762689453124993,0.6925669335937501,0.48834332031250005,-26.279393259244898,-5.80085982659334,-46.66342908271217
1694132312.8377392,0.0013628320312499996,0.00487494140625,1.008047109375,-0.11340326171874993,0.2805796289062501,-0.04571429687499995,-26.366067471281035,-6.4179918973941215,-46.4882028596897
1694132312.8577428,0.0022783593749999996,0.0038983789062499996,1.00676537109375,0.3977661718750001,1.62335306640625,-0.57214251953125,-25.919195252653104,-6.746809525812091,-45.17410280512427
1694132312.877746,0.0013628320312499996,0.0027997460937499996,1.0071926171875,1.2064819921875,1.66912943359375,0.17553814453125005,-26.125003522428493,-5.84563849798006,-46.37344792658424
1694132312.897752,0.0025835351562499996,0.0037152734374999996,1.0074367578125,1.06152349609375,0.8833017968750001,1.4649058203125,-27.24060574715994,-6.766701353448809,-45.562864775705336
1694132312.9177694,0.0005083398437499996,0.0053021875,1.0076808984375,1.38195806640625,1.28765970703125,1.33520611328125,-26.213969291715603,-6.15862216253084,-46.36057726252174
1694132312.9377575,-4.097656250000043e-05,0.00774359375,1.00810814453125,0.2985840429687501,0.9061899804687501,-0.73998919921875,-26.48038922091482,-6.566660893976152,-45.78307466205787
1694132312.957761,0.0011797265624999996,0.0095746484375,1.005605703125,1.06152349609375,1.24188333984375,3.0823374609375,-25.95897090060232,-6.403693830987871,-45.407285612375254
1694132312.9777637,-0.0027265234375000004,0.0024945703124999996,1.01006126953125,1.9694214453125,-0.1314076757812499,4.8218394140625005,-26.01098397945974,-5.697578750909747,-45.74812293427467
1694132312.9977705,-0.01377388671875,0.0161664453125,1.00920677734375,1.7252808203125,0.2500620507812501,3.9063120703125,-27.082608935148222,-6.55662271721834,-45.96062831061744
1694132313.0177739,0.00795462890625,0.0027997460937499996,1.0103664453125,3.9988403906250003,1.69964701171875,0.58752544921875,-26.027992997282013,-5.382130600519122,-46.163417149728765
1694132313.037774,0.02156546875,-0.0158159765625,1.03349876953125,9.85058599609375,1.91327005859375,-0.90783587890625,-26.507949878629667,-6.098733497491779,-45.24167942487525
1694132313.0577807,0.011555703125,-0.0259478125,1.04289818359375,16.04565435546875,2.5159922265625,-2.6397084375,-25.473364374601346,-5.005810329523028,-44.512080722116465
1694132313.077781,0.007161171875,-0.01276421875,1.02458763671875,19.6696167578125,3.37811380859375,-1.449522890625,-26.073312951505645,-5.068880028253497,-45.50074803388404
1694132313.097787,0.0097246484375,0.0132367578125,1.02342796875,22.9044800390625,3.04242044921875,-3.05932513671875,-27.060037406095486,-5.284461395929279,-46.187840137887946
1694132313.117789,0.00746634765625,0.0129926171875,1.02312279296875,24.9796753515625,1.69964701171875,-3.63915912109375,-25.697849426237088,-3.8995900658511533,-47.20003605048561
1694132313.13779,-0.00583931640625,0.0443646875,1.01128197265625,26.65051275390625,2.0582285546875,-1.22827044921875,-27.038484642057398,-4.588529794855059,-45.4609766742649
1694132313.1578097,-0.00632759765625,0.03881048828125,1.02422142578125,30.732238828125,2.37103373046875,-2.5023793359375,-26.140119031827904,-3.342392801202715,-46.26460043671607
1694132313.1778092,0.00929740234375,0.02892279296875,1.04265404296875,36.87390142578125,1.07403666015625,-4.4478749414062495,-25.851601265714624,-2.8242943881167784,-44.95428555634498
1694132313.197807,0.00032523437499999957,0.0566937890625,1.03301048828125,43.244445859375,2.29473978515625,-1.85388080078125,-26.96941626803396,-2.6436631044253716,-46.29053311261939
1694132313.2178562,-0.0018109960937500004,0.0676801171875,1.03044701171875,48.68420416015625,2.897461953125,-2.73889056640625,-25.76094989962576,-1.1898165389956845,-46.26332834687232
1694132313.2378085,-0.00974556640625,0.1033246484375,1.01299095703125,51.301086484375,2.00482279296875,-0.06097308593749995,-27.179278154142363,-0.6830484725894346,-45.57478276276588
1694132313.2578123,0.0045976953125,0.12352728515625,1.00407982421875,53.55175787109375,1.40973001953125,-1.1290883203125,-25.48748577462576,0.35026105426603404,-45.41050833515357
1694132313.277818,0.0020952539062499996,0.13671087890625,1.00957298828125,57.12231451171875,2.7296152734375,-1.9530629296875,-26.14162138888357,1.8896900694027527,-45.29951247968482
1694132313.2978213,0.0070391015625,0.15856146484375,1.0032863671875,60.35717779296875,2.99664408203125,-3.51708880859375,-25.959240949308377,2.1674187803402525,-44.748069440744395
1694132313.3178217,-0.0041913671875,0.19347357421875,0.99248314453125,62.46289068359375,1.95904642578125,-3.02880755859375,-26.38334745919607,3.536285843816815,-45.292925575265876
1694132313.3378267,-0.01194283203125,0.231620546875,0.96452904296875,59.30432134765625,1.64624125,-0.52636615234375,-27.610015192228296,3.7013924668636897,-44.54201788617896
1694132313.3578405,-0.021159140625,0.2554242578125,0.9608058984375,57.74029546875,1.981934609375,3.03656109375,-26.378814873990994,5.417792273016034,-44.56045526069068
1694132313.377838,-0.00510689453125,0.286796328125,0.9490871484375,54.871643125,1.676758828125,1.79296978515625,-26.33427885946463,5.366133356512128,-43.68617098774146
1694132313.3978393,0.02174857421875,0.285575625,0.95866966796875,55.5582886328125,2.12689310546875,-1.6631459375,-26.12250084628103,6.9841685869808785,-44.28238525751685
1694132313.4178462,0.01540091796875,0.302421328125,0.95537376953125,55.9244995703125,2.99664408203125,-3.25768939453125,-26.008168797697046,7.956649019598064,-44.369619891794194
1694132313.4378505,-0.00779244140625,0.34093451171875,0.94304466796875,55.16918951171875,2.43969828125,-1.96832171875,-27.06869446969412,8.327795813543379,-43.13310155268287
1694132313.4578524,-0.01682564453125,0.3616254296875,0.9261379296875,51.545227109375,-0.9706410742187499,-1.876768984375,-25.816250832242947,9.843661268133221,-44.128985314157475
1694132313.4778829,-0.0037641210937500004,0.3892133203125,0.9110012109375,47.99755865234375,1.16558939453125,-1.47241107421875,-27.153239426603296,9.66856568561369,-42.802210854684816
1694132313.4978707,0.01027396484375,0.40099310546875,0.91350365234375,47.06677251953125,2.53888041015625,-2.57867328125,-26.15688277889822,10.974385557684002,-42.95386023542213
1694132313.517864,0.0014238671874999996,0.41637396484375,0.91094017578125,44.9076538671875,0.4484263085937501,-2.1666859765625,-26.45401036215017,12.095545575262127,-43.91122649628639
1694132313.5378895,-0.00828072265625,0.43212103515625,0.90581322265625,44.32019048828125,0.0593271875000001,-3.158507265625,-27.73504244393728,12.337176187078533,-42.46448528925513
1694132313.5578725,0.01027396484375,0.44335150390625,0.90093041015625,44.8161011328125,1.40973001953125,-2.40319720703125,-26.54910248592947,14.048123794500407,-43.19415854975318
1694132313.5778916,-0.0051679296875,0.4551312890625,0.89885521484375,44.03027349609375,1.45550638671875,-3.05932513671875,-27.558028018522243,13.669518655340251,-41.477276704660405
1694132313.5978732,-0.01694771484375,0.4800336328125,0.871816640625,41.3370972265625,0.5170908593750001,-1.97595111328125,-26.282605484952906,15.230906759832438,-41.58034884967994
1694132313.6179082,-0.0027265234375000004,0.49706244140625,0.86577416015625,39.17797857421875,1.95904642578125,-1.44189349609375,-26.480179292203886,15.59116103326994,-40.989824578805916
1694132313.6379015,-0.00016304687500000043,0.5066449609375,0.86833763671875,39.30004888671875,1.53180033203125,-2.76940814453125,-29.53975584005545,15.727765061590251,-40.597209945627206
1694132313.657908,0.00453666015625,0.51403021484375,0.8687648828125,40.6962280859375,-0.8027943945312499,-1.93017474609375,-26.241402368253688,17.553213074285562,-41.520498107248294
1694132313.6778946,-0.0083417578125,0.52965521484375,0.85478783203125,39.7196655859375,-0.0322255468749999,-0.61791888671875,-27.768645771940214,17.300410514715253,-41.06360682209205
1694132313.6978974,-0.0163983984375,0.54796576171875,0.8394680078125,39.155090390625,1.24188333984375,0.007691464843750051,-26.501070440885524,18.12754517780119,-40.2745994411106
1694132313.7179112,0.00758841796875,0.55168890625,0.8403225,39.57470708984375,0.7841196679687501,-2.7465199609375,-26.78927532919119,18.78051652936369,-39.67463994977759
1694132313.7379067,0.005696328125,0.5701215234375,0.82561302734375,38.35400396484375,-0.3221425390624999,-1.4037465234375,-26.563182733243924,18.66254206159025,-39.61025302167701
1694132313.7579088,-0.0122480078125,0.59972357421875,0.80571556640625,34.23413091796875,1.37921244140625,-0.35089007812499995,-26.028287004972437,20.030587856023846,-40.14698613178443
1694132313.7779107,-0.0159101171875,0.6213910546875,0.7903957421875,29.87011724609375,0.6696787500000001,0.08398541015625005,-27.884634676115017,19.892876219793376,-38.45920341156958
1694132313.7979164,-0.00644966796875,0.6240766015625,0.79021263671875,25.49084478515625,-2.3668202734375,0.41967876953125005,-26.684767082487088,20.863412269598065,-38.674829695749274
1694132313.817928,-0.0098066015625,0.64318060546875,0.7735500390625,21.06579595703125,0.2805796289062501,1.65564068359375,-27.10823287154959,20.685866535223063,-39.450580863229746
1694132313.8379223,0.01344779296875,0.63182806640625,0.77001,17.02221685546875,1.91327005859375,-0.7628773828125,-26.58778347103689,21.355402152898847,-37.227363185007086
1694132313.8579268,0.0072832421875,0.65013861328125,0.7635402734375,10.36938482421875,1.33343607421875,0.95373638671875,-26.471090031583767,21.902621710027752,-37.99569300031471
1694132313.877929,-0.00474068359375,0.6760785546875,0.73357201171875,-0.15917962890624993,1.66912943359375,2.883973203125,-27.54808792672537,20.9227627427426,-38.27180117475318
1694132313.8979323,-0.00034615234375000043,0.67961859375,0.725820546875,-9.43652337890625,1.9361582421875,0.9766245703125,-27.086929467496855,21.76572076032072,-39.00421965070533
1694132313.9179366,-0.00028511718750000043,0.6616742578125,0.7454738671875,-15.17382806640625,1.53180033203125,2.08288677734375,-27.529279264982204,20.99399792389494,-37.930666161813726
1694132313.9379416,0.0050859765625,0.65325140625,0.75871849609375,-19.621765078125,-0.0627431249999999,0.6104136328125,-26.22882349630545,21.369060373113687,-38.543890475656504
1694132313.9579568,0.0054521875,0.6423871484375,0.7718410546875,-26.23645013671875,2.46258646484375,-1.3732289453125,-26.156754050626734,21.157528101141033,-39.508960402780524
1694132313.9779541,-0.005534140625,0.6536176171875,0.75786400390625,-33.80480951171875,2.0582285546875,1.70141705078125,-27.052313630948998,19.681042145086344,-38.798511246652595
1694132313.997955,0.00392630859375,0.63475775390625,0.77361107421875,-36.52087396484375,-0.0856313085937499,-0.7628773828125,-26.11406409225271,19.910991390203534,-39.247905743844974
1694132314.017957,0.006672890625,0.5942914453125,0.8152980859375,-37.35247796875,1.83697611328125,-0.95361224609375,-27.340430777311308,18.63953970514494,-39.22585312250708
1694132314.0379646,-0.00803658203125,0.59667181640625,0.80974388671875,-42.15136712890625,-1.13848775390625,-0.30511371093749995,-25.88785438839529,18.786160802312907,-40.37837536896705
1694132314.0579658,0.00539115234375,0.6069867578125,0.78288841796875,-54.34313958984375,-0.7799062109374999,3.39514263671875,-26.12783733175467,17.65541968561369,-39.390713953195565
1694132314.0779667,-0.03232857421875,0.60985541015625,0.7796535546875,-61.9496459375,-2.17608541015625,2.92212017578125,-26.180468987394313,16.289030805242593,-40.604776279489506
1694132314.0979664,0.02919486328125,0.5244672265625,0.84721947265625,-58.623229921875,1.0206308984375,0.69433697265625,-25.79811374410818,16.666452340398845,-40.96205361664771
1694132314.11797,0.0008135156249999996,0.48705267578125,0.883535390625,-58.60034173828125,0.3034678125000001,0.71722515625,-27.553205546354278,14.984593454168376,-41.05276039142798
1694132314.137975,-0.00474068359375,0.49895453125,0.857168203125,-62.56762689453125,1.33343607421875,2.700867734375,-25.866675805021266,14.967245370184001,-42.471435055856695
1694132314.157993,-0.01414009765625,0.49120306640625,0.86376,-67.87768548828124,-1.64202779296875,1.53357037109375,-26.676185144498806,12.643775402898845,-41.28756959479713
1694132314.1779833,-0.0037641210937500004,0.4622113671875,0.88677025390625,-69.2280883203125,-0.2000722265624999,3.27307232421875,-26.30317000863455,12.986419649969159,-42.492134295969
1694132314.1979895,0.00478080078125,0.40587591796875,0.93535423828125,-65.215026796875,-0.0780019140624999,3.70031841796875,-26.28930920516775,11.668854160223066,-43.63894535834693
1694132314.2179918,-0.0008344335937500004,0.35118841796875,0.9566555078125,-60.3169555078125,0.9748545312500001,3.616395078125,-27.595962870817164,10.017986024480876,-43.76162680268287
1694132314.2379951,0.00771048828125,0.33489203125,0.9554348046875,-56.39544671875,0.6620493554687501,1.73193462890625,-26.283734417325956,9.78660565094572,-43.29319170197486
1694132314.2579968,-0.0032148046875000004,0.32750677734375,0.96013451171875,-54.14477533203125,-0.2229604101562499,2.0142222265625,-27.228102819791776,8.172603262762127,-43.11622271589088
1694132314.2779992,-0.004069296875,0.30052923828125,0.97038841796875,-50.77258294921875,-0.2992543554687499,1.39624126953125,-26.06074711581228,8.573883360418378,-44.396925057809824
1694132314.2980032,0.0036211328124999996,0.30236029296875,0.956777578125,-51.2837523828125,0.6849375390625001,1.297059140625,-26.465433668424588,7.153734001531658,-44.75142532782935
1694132314.3180077,-0.00016304687500000043,0.29064154296875,0.9503078515625,-53.0232543359375,2.29473978515625,0.6714487890625,-27.361318327604273,5.191579669500409,-44.75387275177955
1694132314.338012,-0.00828072265625,0.269950625,0.96208763671875,-53.90063470703125,-1.069823203125,2.5330210546875,-25.784671555875757,5.732175937566815,-45.24581051032447
1694132314.3580308,0.0037432031249999996,0.22789740234375,0.98357201171875,-51.74914544921875,-0.5357655859374999,2.0142222265625,-27.373034657194122,3.672701585516034,-45.05488559552955
1694132314.3780184,-0.00022408203125000043,0.20226263671875,1.0001125390625,-48.5371703515625,0.8298960351562501,1.41150005859375,-26.65980480917166,4.2603189917660345,-46.46221908271216
1694132314.3980212,-0.0027875585937500004,0.186698671875,0.99553490234375,-48.22436517578125,0.2119150781250001,2.2278452734375,-26.73843983773611,2.5234356294613463,-44.804541790964116
1694132314.418032,-0.0015668554687500004,0.1914594140625,0.9776516015625,-49.81127923828125,-1.1613759375,3.4638071875,-26.793277270109158,0.6497130542660341,-45.48042898993873
1694132314.4380302,-0.01084419921875,0.1904828515625,0.97136498046875,-51.9856566796875,0.2042856835937501,4.4708872656250005,-26.41721349166678,1.0813203594418155,-46.7347164855442
1694132314.4580297,-0.00486275390625,0.14403509765625,0.99687767578125,-51.32952875,1.86749369140625,6.0578013281250005,-27.58938388046072,-1.1535438925113093,-46.41795674286842
1694132314.4780362,0.00551322265625,0.1008832421875,1.01677513671875,-47.09521478515625,-0.5586537695312499,5.4703379492187505,-26.3043923587322,-0.33648172747224736,-46.454147796457285
1694132314.49804,0.01179984375,0.07115912109375,1.03221703125,-41.09851068359375,0.5399790429687501,4.1199351171875005,-25.82016700790213,-2.0482680409488094,-44.87310062787818
1694132314.5180562,0.0013628320312499996,0.0804975,1.0151271875,-38.725768984375,-0.6578358984374999,4.3488169531250005,-25.7223521231365,-2.07739233001131,-45.22655401764869
1694132314.5380473,-0.0107831640625,0.06969427734375,1.01579857421875,-37.0320433984375,-0.3450307226562499,7.2327280859375005,-25.988425945035914,-3.018948140558184,-46.44943563996314
1694132314.5580635,-0.00522896484375,0.0549848046875,1.0084133203125,-37.3067016015625,-0.7570180273437499,8.93408306640625,-26.98980905270193,-4.63245101360506,-45.53893928180885
1694132314.578054,-0.009928671875,0.05480169921875,0.99419212890625,-40.21350091796875,0.3492441796875001,10.21582134765625,-26.080997808805446,-4.028284957940997,-46.612736311594
1694132314.5980542,0.0008135156249999996,0.0424115625,0.99687767578125,-41.2434691796875,-0.1085194921874999,9.46814068359375,-26.916788460660914,-5.935425976007404,-45.89451041803932
1694132314.6180568,0.01979544921875,-0.030098203125,1.07268333984375,-12.94604486328125,8.73394876953125,2.06762798828125,-25.914377566373805,-5.6114917728824025,-46.71446898456763
1694132314.6380913,0.07375052734375,-0.1762163671875,1.1420803125,-2.7531737695312497,1.95904642578125,-6.1568593164062495,-25.716617366788846,-5.685348577081622,-45.769111222116464
1694132314.6580882,-0.0273847265625,0.00829291015625,1.012929921875,-1.41040033203125,2.41681009765625,-2.67785541015625,-26.674927018156033,-6.404912387140216,-46.75516869379615
1694132314.6780992,-0.005534140625,0.01049017578125,1.00682640625,-0.9221190820312499,0.0898447656250001,-0.5187367578125,-25.736696487150173,-5.412548243097247,-46.33167514008522
1694132314.6980853,0.0050859765625,-0.0131304296875,1.00639916015625,-0.2583617578124999,0.4179087304687501,-5.3328847070312495,-27.097919901578884,-6.510874960382404,-46.421517048898686
1694132314.718088,0.005208046875,0.01134466796875,1.00823021484375,-1.0213012109375,1.09692484375,-4.8369740624999995,-25.596594284513454,-5.9080346600894345,-45.666654123483646
1694132314.7380831,0.00044730468749999957,0.01024603515625,1.00749779296875,-0.6779784570312499,0.9748545312500001,-2.05224505859375,-26.026410151700954,-6.154187698663653,-46.82942647431373
1694132314.7580836,-0.0027875585937500004,0.01061224609375,1.00713158203125,0.15362554687500007,0.0364390039062501,1.91504009765625,-27.405474897306423,-6.600677382257404,-44.75716597284888
1694132314.7780855,0.0034990624999999996,-0.0003130468750000004,1.00652123046875,0.7716065039062501,1.066407265625,1.388611875,-26.260113044767362,-5.563194718194903,-46.9718092289524
1694132314.7980897,0.0013628320312499996,0.0024945703124999996,1.00761986328125,0.9394531835937501,1.95904642578125,0.007691464843750051,-27.10414667367361,-6.8752069706363095,-44.192155019723884
1694132314.8180933,0.0014849023437499996,0.00579046875,1.00725365234375,-0.014221132812499926,-0.1771840429687499,1.6174937109375,-25.805050577115995,-5.6192307172183416,-45.93330344599342
1694132314.8380988,0.0036211328124999996,0.00707220703125,1.0054836328125,0.5274658789062501,0.6391611718750001,-0.5187367578125,-26.011831377653102,-6.364758349542559,-45.75350236457252
1694132314.858101,0.0025224999999999996,0.00481390625,1.00676537109375,0.6953125585937501,1.554688515625,0.6409312109375,-26.034666860685327,-6.657474181085528,-45.59185624311256
1694132314.878105,-0.0013837500000000004,0.004325625,1.0073146875,1.18359380859375,-0.8027943945312499,2.23547466796875,-26.209740444059353,-6.061541619562091,-46.31888963410377
1694132314.8981082,-0.0013227148437500004,0.0037152734374999996,1.00749779296875,1.54980474609375,0.1585093164062501,3.9520884375,-27.375750402067165,-6.910136445733964,-47.094637357980716
1694132314.91811,-0.0010175390625000004,0.00463080078125,1.0086574609375,1.008117734375,2.32525736328125,5.0125742773437505,-25.786439528043726,-5.590487461847248,-46.79458870148658
1694132314.9381292,-0.0008344335937500004,0.0066449609375,1.007558828125,2.1372681250000003,2.5159922265625,2.11340435546875,-26.252245540983182,-6.312424076105059,-47.065298135812746
1694132314.9581187,0.0114336328125,-6.890625000000039e-05,1.0091457421875,2.0686035742187503,1.74542337890625,2.28125103515625,-26.327096123624784,-5.64225427141756,-45.604096584299086
1694132314.9781234,0.00636771484375,0.0013349023437499996,1.007558828125,1.82446294921875,3.66803080078125,1.82348736328125,-26.052348358243922,-5.573109427179278,-46.591141485910406
1694132314.9981277,-0.013834921875,0.00609564453125,1.00334740234375,1.50402837890625,3.5230723046875,-0.78576556640625,-27.133941687589626,-6.511712461847246,-46.16946158967017
1694132315.01813,-0.0062665625,0.0105512109375,1.0098781640625,3.1672363867187503,3.4010019921875,-0.22119037109374995,-26.222611907804467,-5.481585215265215,-46.04603797809791
1694132315.0381768,-0.01243111328125,0.0105512109375,1.01775169921875,5.66967779296875,8.94757181640625,-0.900206484375,-27.37212045467947,-6.170220011651934,-45.73903227900123
1694132315.058144,-0.0225019140625,0.0037152734374999996,1.03032494140625,10.53723150390625,14.66961771484375,-5.5693959374999995,-26.415622961149197,-4.8723660892886524,-46.01683250995826
1694132315.0781395,0.03395560546875,0.0037152734374999996,1.03764916015625,12.42932134765625,22.78729349609375,-6.4772938867187495,-27.02260402267263,-4.7122888456363095,-45.97157159748267
1694132315.098144,0.02882865234375,0.0159223046875,1.03984642578125,11.59008794921875,28.7611094140625,-3.47131244140625,-29.038470836027127,-5.674441770440996,-45.54527634784888
1694132315.1181445,0.0048418359375,0.03771185546875,1.02538109375,8.14160162109375,34.818848671875,-0.33563128906249995,-28.180447212369902,-4.9850162445620905,-45.57951333796119
1694132315.1381545,-0.0110273046875,0.03801703125,1.02001,6.0587769140625,38.0384531640625,-0.66369525390625,-29.673857873380637,-5.34416615081209,-46.51695307892798
1694132315.1581836,-0.04673287109375,0.02843451171875,1.00139427734375,1.35144048828125,37.43573099609375,4.3106699804687505,-28.929105594083765,-4.702125975519122,-46.16012970502662
1694132315.178177,-0.07285591796875,0.04039740234375,0.97881126953125,-8.09374994140625,39.98394876953125,6.6147471289062505,-29.531673808561305,-4.248449242608965,-45.51974037714576
1694132315.1981635,-0.08274361328125,0.0356976953125,0.99931908203125,-6.621276796875,37.9163828515625,-1.0985707421875,-34.05529371493338,-6.161267019464434,-43.99511409015845
1694132315.2181683,-0.07810494140625,0.03173041015625,1.01274681640625,-1.92919916015625,35.68097025390625,-0.61791888671875,-31.45881507235525,-5.1270520004214655,-44.16732635712623
1694132315.238172,-0.105143515625,0.03380560546875,1.00896263671875,-1.65454095703125,39.1676035546875,3.76135357421875,-33.21362465633963,-5.60439089299959,-43.85168224421118
1694132315.2581737,-0.12790962890625,0.02965521484375,0.986562734375,-7.28503412109375,42.631348671875,9.1248179296875,-32.33793204903982,-5.034356677179279,-44.22465089667701
1694132315.2781763,-0.13999458984375,0.0261762109375,0.98540306640625,-11.52697748046875,46.20953470703125,10.06323345703125,-32.94417183724783,-5.949033795343341,-43.66237297162818
1694132315.29818,-0.1670331640625,-6.890625000000039e-05,0.992910390625,-8.9711303125,37.870606484375,10.8948374609375,-33.46114794454763,-5.13078369768709,-43.61058879194068
1694132315.318191,-0.19541451171875,0.0010297265624999996,1.00578880859375,-1.82238763671875,37.84771830078125,1.44964703125,-34.77511840939139,-4.721797736261309,-43.6509376384983
1694132315.3381875,-0.2109784765625,0.0010907617187499996,0.97075462890625,1.1149292578125,36.55072123046875,-5.7067250390624995,-37.122471419645294,-6.165000600030842,-42.46100359797096
1694132315.3582091,-0.22922798828125,0.004569765625,0.9793605859375,-0.9984130273437499,37.8248301171875,-4.7606801171874995,-36.293369225187284,-4.937680296808184,-42.39273203962135
1694132315.378235,-0.22452828125,-0.01380181640625,0.9888820703125,0.7410889257812501,41.35723978515625,-7.8276967187499995,-37.7496239944744,-6.375641734796465,-41.64281093671607
1694132315.3982382,-0.219889609375,-0.004707578125,0.98882103515625,1.62609869140625,43.7757578515625,-10.91760150390625,-37.2198630660076,-5.268428021905841,-41.62918282892798
1694132315.4182026,-0.22202583984375,0.02037787109375,0.97478294921875,-1.189147890625,47.7430430078125,-8.1176137109375,-37.87699673422049,-5.681544172296466,-41.78878407416724
1694132315.4382076,-0.2808026953125,0.04943060546875,0.991445546875,-3.5695189843749997,44.91253763671875,-2.5634144921875,-40.24398863949393,-6.490142755792559,-39.915541871286386
1694132315.4582117,-0.3127851171875,0.03661322265625,0.94817162109375,-6.987487734375,41.471680703125,1.9226694921875,-39.4835680068035,-6.045051825616778,-41.144236445260994
1694132315.4782128,-0.32944771484375,0.02306341796875,0.940664296875,-5.69812005859375,40.85369974609375,0.80114849609375,-41.21079988680838,-6.869741323175372,-40.5150435669651
1694132315.49822,-0.2943525,0.0030438867187499996,0.94432640625,2.3356323828125003,47.819336953125,-3.92144671875,-40.6619877432537,-5.998201542901934,-40.20426793586158
1694132315.5182333,-0.30027291015625,0.00853705078125,0.95061302734375,4.3192749609375,49.528321328125,0.007691464843750051,-41.808883027677524,-6.153699047296465,-39.140535317331306
1694132315.5382354,-0.3613691015625,0.03215765625,0.94524193359375,-6.14062494140625,45.133790078125,4.5471812109375005,-43.89888871053885,-6.67603987688631,-38.92898241132544
1694132315.5582361,-0.42124458984375,0.00731634765625,0.9266262109375,-13.701354921875,37.55780130859375,9.9793101171875,-43.29138287740897,-5.93850624065584,-38.61187992572974
1694132315.5782397,-0.40500923828125,-0.02198052734375,0.91600609375,-12.846862734375,33.95672708984375,9.2774058203125,-45.212644635099394,-7.356427466730061,-37.08684558991431
1694132315.598234,-0.39536568359375,0.0120160546875,0.9136867578125,-10.1765746484375,36.30658060546875,3.616395078125,-44.141203619474396,-6.0676813124331845,-37.34034169904517
1694132315.6182382,-0.4084882421875,0.0198285546875,0.91350365234375,-4.12646478515625,40.3425303125,0.8545542578125,-44.709342271085724,-6.732638395440997,-37.85524739740943
1694132315.6382535,-0.42393013671875,0.0002362695312499996,0.8834133203125,2.3585205664062503,40.464600625,-0.5492543359375,-45.118346512662875,-7.366340929132403,-36.53509650495338
1694132315.6582518,-0.44944283203125,-0.00495171875,0.88420677734375,2.4119263281250003,40.2052012109375,1.236023984375,-45.40596917477225,-7.130133181085529,-35.481164468454345
1694132315.678252,-0.47190376953125,0.00853705078125,0.88799095703125,-1.07470697265625,35.68097025390625,0.63330181640625,-47.64443432174491,-8.131932512140216,-35.44497439338111
1694132315.6982725,-0.483561484375,0.00969671875,0.8914699609375,-5.3242797265625,32.89624125,3.95971783203125,-46.520954294279086,-7.136287578546466,-35.73115288776587
1694132315.7182584,-0.503336875,0.009452578125,0.88664818359375,-10.88610833984375,30.0123301171875,5.9891367773437505,-47.59019051388358,-7.4762041928042775,-35.15191587922095
1694132315.738263,-0.5054120703125,0.01439642578125,0.86913109375,-10.832702578125,30.95074564453125,3.830018125,-47.41336799386405,-7.074313583917559,-34.353600398630135
1694132315.7582827,-0.51133248046875,0.0120160546875,0.85332298828125,-7.231628359375,25.80853373046875,3.40277203125,-48.08611036215017,-6.982962125909747,-34.214149396310795
