Time,ACCX,ACCY,ACCZ,GYRX,GYRY,GYRZ,MAGX,MAGY,MAGZ
1694133533.2751124,0.0025224999999999996,0.0034711328124999996,1.0027980859375,0.772444375,0.73090302734375,-1.04405103515625,-27.786954594449973,-7.6866903392886545,-44.04790557074927
1694133533.2950978,0.0025224999999999996,0.0035321679687499996,1.00395775390625,-0.28041207031250004,0.006110546875000011,-1.646773203125,-26.319639479215603,-6.0656699042300595,-47.11101275751685
1694133533.3151238,0.0022783593749999996,0.0034711328124999996,1.00346947265625,0.32993949218749996,-0.76445830078125,0.39790453125,-27.760709648893336,-7.181609125909748,-46.099716651681895
1694133533.3352191,0.0024614648437499996,0.0039594140625,1.003652578125,0.40623343749999996,0.82245576171875,-0.006453378906249974,-26.594584857267357,-6.177306674249589,-47.32638812433814
1694133533.3550599,0.0021562890624999996,0.0032269921874999996,1.0034084375,0.30705130859374996,-0.01677763671874999,0.5047160546875,-28.009768567716577,-7.447909617608966,-45.63145898957252
1694133533.3750584,0.0028276757812499996,0.0032880273437499996,1.0037746484375,-0.11256539062500004,-0.39824736328125,-1.07456861328125,-26.744371000333764,-6.345644211847247,-46.23074963886451
1694133533.395152,0.0022783593749999996,0.0028607812499999996,1.003652578125,0.13920462890624996,-0.68816435546875,0.977738515625,-26.641603962247828,-6.405302131769121,-45.92908706196021
1694133533.4151118,0.0025835351562499996,0.0033490624999999996,1.00346947265625,0.38334525390624996,1.18866669921875,-1.12034498046875,-26.684860377897245,-7.311034851983965,-45.36245074433326
1694133533.4350722,0.0027056054687499996,0.0031049218749999996,1.00493431640625,-0.11256539062500004,0.8758615234375,-2.47837720703125,-26.12990257552908,-6.336366183038654,-46.191563939035404
1694133533.4550738,0.0021562890624999996,0.0035932031249999996,1.003652578125,-0.03627144531250004,-1.1688162109375,-0.37266431640625,-27.134402019987085,-6.922047932550371,-45.85340819538306
1694133533.4750738,0.0023393945312499996,0.0032880273437499996,1.00432396484375,0.20786917968749996,-0.23040068359375,-1.53233228515625,-26.393711635221464,-6.301146145440997,-45.83977566547584
1694133533.495089,0.0025224999999999996,0.0034711328124999996,1.00469017578125,0.03239310546874996,0.03662812500000001,-0.914351328125,-26.253819364957792,-7.406165368097247,-45.35467572870826
1694133533.5150967,0.0025835351562499996,0.0039594140625,1.0045070703125,0.5740801171875,0.08240449218750001,0.23005785156250003,-26.524128663175564,-6.489124808526935,-46.68141681562232
1694133533.5350926,0.0018511132812499996,0.0030438867187499996,1.00371361328125,0.08579886718749996,-0.2075125,0.855668203125,-26.579476957242946,-6.283379612726153,-46.63349142365455
1694133533.5550966,0.0025835351562499996,0.0031659570312499996,1.00469017578125,0.10868705078124996,0.05951630859375001,2.076371328125,-27.15417862081717,-6.928210404230059,-45.21103060651588
1694133533.5752995,0.0024004296874999996,0.0032880273437499996,1.00444603515625,0.38334525390624996,0.99030244140625,0.95485033203125,-26.359510953092553,-6.6406767338199035,-46.21466441913795
1694133533.5953076,0.0023393945312499996,0.0032880273437499996,1.00420189453125,0.25364554687499996,-0.13884794921875,1.16847337890625,-27.35113991451834,-7.364819042413654,-45.285444304758066
1694133533.615101,0.0024004296874999996,0.0033490624999999996,1.004385,0.08579886718749996,0.70801484375,-0.64732251953125,-26.35143793063162,-6.613481252862871,-45.47028074054908
1694133533.6352413,0.0020342187499999996,0.0031659570312499996,1.005117421875,0.20786917968749996,1.49384248046875,-1.18900953125,-26.748093222013452,-6.4766370897769345,-46.07598044806861
1694133533.6552827,0.0022783593749999996,0.0028607812499999996,1.00444603515625,0.06291068359374996,0.60883271484375,0.3826457421875,-27.430538969938258,-7.259564900812091,-46.01325519257545
1694133533.6751552,0.0025835351562499996,0.0029218164062499996,1.00469017578125,0.30705130859374996,-1.02385771484375,-0.20481763671874997,-26.659901584318145,-6.677341681085528,-46.73171676130103
1694133533.6952007,0.0023393945312499996,0.0032269921874999996,1.00383568359375,0.30705130859374996,1.40228974609375,0.3216105859375,-28.081377740324,-7.452263009210529,-45.069881758249274
1694133533.7152479,0.0026445703124999996,0.0027387109374999996,1.00493431640625,0.13157523437499996,0.60883271484375,-0.45658765625,-26.808701701993925,-6.605449847589433,-46.541123600290284
1694133533.735256,0.0017900781249999996,0.0031659570312499996,1.004629140625,0.08579886718749996,-0.543205859375,0.19954027343750003,-26.571935453702906,-6.450560367120684,-46.48852158234595
1694133533.7551322,0.0020952539062499996,0.0033490624999999996,1.00487328125,0.36045707031249996,1.15814912109375,0.916703359375,-28.304973632535916,-7.208661187921465,-46.75687454023169
1694133533.7751267,0.0021562890624999996,0.0029828515624999996,1.005117421875,-0.11256539062500004,-0.2075125,-1.1737507421875,-26.661781242155055,-6.514281710870684,-46.257121779123295
1694133533.795265,0.0025224999999999996,0.0030438867187499996,1.00554466796875,0.20786917968749996,-0.35247099609375,0.0011760156250000264,-27.676710745573025,-7.495011233331622,-46.72764534015845
1694133533.8153517,0.0026445703124999996,0.0039594140625,1.005605703125,0.18498099609374996,-0.93230498046875,-0.2734821875,-26.278195027189234,-6.113661395440998,-46.580990684030525
1694133533.835272,0.0019731835937499996,0.0029828515624999996,1.0054836328125,0.28416312499999996,0.9674142578125,-0.11326490234374997,-26.234582011075954,-6.449648642023027,-45.9696015673313
1694133533.85525,0.0021562890624999996,0.0031659570312499996,1.00578880859375,-0.18122994140625004,0.46387421875,-1.02879224609375,-26.442386303190215,-7.324941906183184,-46.713168386178964
1694133533.875144,0.0026445703124999996,0.0037152734374999996,1.0053615625,0.04002249999999996,-0.18462431640625,0.016434804687500026,-26.322745695035913,-6.092700747491778,-47.32777771320533
1694133533.8953187,0.0025835351562499996,0.0037152734374999996,1.00554466796875,0.28416312499999996,0.921637890625,0.58863939453125,-27.24340061605642,-7.40647906878084,-45.890591235788335
1694133533.9154198,0.0027056054687499996,0.0036542382812499996,1.0054836328125,0.06291068359374996,1.2115548828125,0.13850511718750003,-26.13333822457693,-6.0559522347964645,-46.375834667673104
1694133533.935381,0.0023393945312499996,0.004081484375,1.006093984375,0.10868705078124996,-0.27617705078125,2.25184740234375,-26.139182776090603,-6.969418297296468,-45.87736160810279
1694133533.9554186,0.0025835351562499996,0.0027387109374999996,1.00566673828125,0.32993949218749996,0.86823212890625,1.343949453125,-25.83234396652029,-7.1085872670230295,-45.29525658490943
1694133533.9751773,0.0020342187499999996,0.0031049218749999996,1.00566673828125,0.04002249999999996,1.3794015625,-0.4413288671875,-26.398040976041777,-6.243663990167559,-46.54193603791236
1694133533.9952917,0.0018511132812499996,0.0031049218749999996,1.00566673828125,-0.08204781250000004,0.44098603515625,-0.18192945312499997,-27.29842726424978,-6.989669309015214,-45.3357337848606
1694133534.0151904,0.0027666406249999996,0.0034711328124999996,1.00584984375,0.13920462890624996,-0.88652861328125,1.954301015625,-25.986153751432397,-6.318008453546465,-45.93882783918189
1694133534.0351763,0.0021562890624999996,0.0031659570312499996,1.0052394921875,0.18498099609374996,1.165778515625,0.367386953125,-27.26597883309744,-7.349184611261309,-45.81299054621314
1694133534.055182,0.0022173242187499996,0.0029218164062499996,1.0052394921875,-0.54744087890625,1.043708203125,-0.731245859375,-26.62710318136404,-6.32290003704256,-46.09311992450904
1694133534.0752451,0.0027666406249999996,0.0035932031249999996,1.00530052734375,0.13920462890624996,-0.665276171875,1.2676555078125,-26.008185796232205,-6.035639492120685,-45.38931055610084
1694133534.0951862,0.0014238671874999996,0.0034100976562499996,1.00584984375,-0.28041207031250004,1.1352609375,1.00062669921875,-27.73815393185232,-7.3773136307925595,-45.597833112985604
1694133534.1153762,0.0021562890624999996,0.0035932031249999996,1.00566673828125,-0.13545357421875004,1.0894845703125,-0.16667066406249997,-26.128330890958768,-6.238296603448809,-46.436672197214115
1694133534.1352146,0.0021562890624999996,0.0035321679687499996,1.0064601953125,-0.08967720703125004,-0.56609404296875,1.50416673828125,-27.83304997384451,-7.166060122491779,-45.69958077411842
1694133534.1551998,0.0026445703124999996,0.0033490624999999996,1.0052394921875,0.10868705078124996,-0.2075125,-0.19718824218749997,-26.82970584152029,-6.36020728753084,-45.72618992255592
1694133534.1753714,0.0024004296874999996,0.0033490624999999996,1.006338125,0.32993949218749996,0.6317208984375,-0.059859140624999974,-26.24146011581228,-5.811807235284746,-46.662632765329356
1694133534.1952026,0.0024614648437499996,0.0032880273437499996,1.00639916015625,-0.18122994140625004,0.39520966796875,0.29872240234375,-27.942030424283963,-6.7189680438784976,-45.57085723566627
1694133534.215208,0.0024614648437499996,0.0035932031249999996,1.0064601953125,0.55119193359375,-0.543205859375,-0.83042798828125,-26.378767568204857,-5.928985371515215,-47.17480592487525
1694133534.235417,0.0027666406249999996,0.0033490624999999996,1.00603294921875,-0.32618843750000004,1.3794015625,3.44966234375,-27.6869250462322,-6.9160438656558405,-46.16799779755592
1694133534.255215,0.0022783593749999996,0.0038373437499999996,1.00652123046875,-0.11256539062500004,1.18866669921875,0.428422109375,-26.778178182218532,-6.172932084894122,-47.832772318185796
1694133534.2752185,0.0023393945312499996,0.0030438867187499996,1.0059719140625,-0.31092964843750004,1.0894845703125,-1.2500446875,-26.486551925992945,-6.7903665741519355,-45.498129838815686
1694133534.2952213,0.0020342187499999996,0.0034711328124999996,1.00615501953125,0.30705130859374996,-0.543205859375,-1.19663892578125,-26.598699657804467,-7.209198070245684,-46.14606282880592
1694133534.31523,0.0024614648437499996,0.0036542382812499996,1.00652123046875,0.30705130859374996,0.70038544921875,-1.62388501953125,-26.58340561898611,-6.12308035003084,-46.3652394900608
1694133534.3352287,0.0017900781249999996,0.0034100976562499996,1.00664330078125,0.18498099609374996,0.27313935546875,0.22242845703125003,-27.707015386930447,-6.399337988214433,-46.39709995063209
1694133534.355223,0.0018511132812499996,0.0029828515624999996,1.0064601953125,0.08579886718749996,-0.88652861328125,-1.463667734375,-26.45168441207693,-6.384632698175372,-46.21511542804908
1694133534.3752458,0.0022173242187499996,0.0034711328124999996,1.0062160546875,0.35282767578124996,0.9674142578125,-1.31870923828125,-26.55954578231619,-7.394537000421465,-46.642312341012946
1694133534.3952374,0.0024004296874999996,0.0034100976562499996,1.00578880859375,-0.65425240234375,0.6622384765625,0.15376390625000003,-26.46000102792166,-6.289644354425372,-46.139034891794196
1694133534.415244,0.0024004296874999996,0.0031659570312499996,1.00627708984375,0.04002249999999996,0.1739572265625,-0.58628736328125,-26.260989749601343,-6.291770853937091,-46.72219417170142
1694133534.4352334,0.0022173242187499996,0.0035932031249999996,1.00615501953125,0.05528128906249996,0.80719697265625,0.550492421875,-27.681848919034937,-7.404225992608966,-46.29580934186744
1694133534.4552412,0.0026445703124999996,0.0035321679687499996,1.00713158203125,-0.005753867187500039,1.35651337890625,0.2910930078125,-26.582561713102322,-6.356725697687091,-46.65326388239478
1694133534.4752395,0.0021562890624999996,0.0032880273437499996,1.0064601953125,0.06291068359374996,0.27313935546875,-1.15086255859375,-27.174095261075955,-7.038797016534747,-45.50458553595924
1694133534.4952555,0.0027666406249999996,0.0037763085937499996,1.0059719140625,0.13157523437499996,-0.94756376953125,-1.51707349609375,-26.07659985238455,-6.270268274347249,-46.239867858469005
1694133534.515269,0.0019731835937499996,0.0032880273437499996,1.00737572265625,0.10868705078124996,0.4180978515625,0.78700365234375,-26.54939574288748,-6.582116374444903,-47.61805877143287
1694133534.535275,0.0019731835937499996,0.0031049218749999996,1.00700951171875,-0.13545357421875004,0.60883271484375,2.08400072265625,-27.511032390592558,-7.347689210870685,-46.044506515451424
1694133534.5552633,0.0023393945312499996,0.0038983789062499996,1.006093984375,-0.03627144531250004,-0.39824736328125,-0.95249830078125,-26.195720415494897,-6.158434464776935,-47.14033832453345
1694133534.5752761,0.0020952539062499996,0.0033490624999999996,1.00713158203125,0.08579886718749996,0.46387421875,-0.5023640234375,-27.392887926115016,-7.2225900346011525,-46.2439311598606
1694133534.5952656,0.0021562890624999996,0.0035321679687499996,1.0064601953125,0.04002249999999996,0.39520966796875,1.6033488671875,-26.262930413663845,-6.341382480890216,-46.72005146076392
1694133534.6152873,0.0024614648437499996,0.0037763085937499996,1.00713158203125,-0.28041207031250004,-0.1617361328125,-1.5094441015625,-25.71003497494314,-6.121240688409747,-45.9565317902317
1694133534.6353126,0.0019731835937499996,0.0035932031249999996,1.006582265625,0.20786917968749996,0.9674142578125,-0.99827466796875,-25.8175352123699,-7.2873147221011525,-45.688776171457285
1694133534.655278,0.0014849023437499996,0.0031659570312499996,1.0069484765625,0.47489798828124996,0.94452607421875,0.49708666015625,-25.985523092252713,-6.183348150323811,-46.437859229440676
1694133534.6752968,0.0025224999999999996,0.0031049218749999996,1.0074367578125,-0.21174751953125004,0.05951630859375001,1.29054369140625,-27.314937502775173,-6.815845272394121,-45.10258419660377
1694133534.6953316,0.0020342187499999996,0.0038373437499999996,1.0069484765625,0.01713431640624996,-0.71868193359375,-0.5633991796875,-26.297359055143335,-6.290465644464435,-46.516111762765874
1694133534.715302,0.0022783593749999996,0.0037763085937499996,1.0071926171875,-0.23463570312500004,0.73090302734375,0.10798753906250003,-26.90377260311697,-7.204071407159748,-45.976820362863535
1694133534.7352839,0.0022783593749999996,0.0029828515624999996,1.00725365234375,0.28416312499999996,0.77667939453125,0.06984056640625003,-26.341889421720484,-7.752987795831622,-46.46430817280006
1694133534.7552972,0.0023393945312499996,0.0036542382812499996,1.0064601953125,0.26127494140624996,0.006110546875000011,0.08509935546875003,-26.188468858243922,-6.385404723077715,-46.774853783395756
1694133534.7753618,0.0020952539062499996,0.0030438867187499996,1.0073146875,-0.05915962890625004,-0.543205859375,0.27583421875,-27.579440620817167,-7.217835658136309,-45.70665805036353
1694133534.7953155,0.0022783593749999996,0.0038983789062499996,1.0067043359375,-0.15834175781250004,0.02899873046875001,0.32923998046875,-26.408052269620875,-6.2305925751284965,-46.30173575922584
1694133534.8153203,0.0021562890624999996,0.0036542382812499996,1.00652123046875,0.16209281249999996,0.44098603515625,0.428422109375,-26.050879424894315,-7.568591130304277,-46.20608694220923
1694133534.835318,0.0024614648437499996,0.0033490624999999996,1.007558828125,-0.13545357421875004,0.58594453125,-0.12852369140624997,-25.720867733732202,-6.362335012628496,-46.09523064899634
1694133534.8553238,0.0024004296874999996,0.0031659570312499996,1.0071926171875,0.6503740625,0.250251171875,0.16902269531250003,-26.30990795162771,-6.567161655694903,-46.687683376047126
1694133534.8753195,0.0019731835937499996,0.0031049218749999996,1.00780296875,-0.15834175781250004,0.9674142578125,0.20716966796875003,-26.99756409957693,-7.228070279718342,-46.3321126286106
1694133534.8953424,0.0027666406249999996,0.0035932031249999996,1.0074367578125,-0.20411812500000004,-0.08544218749999999,0.71070970703125,-26.046031079069117,-6.466723606378497,-46.242529637643806
1694133534.9153295,0.0017900781249999996,0.0037152734374999996,1.00749779296875,0.28416312499999996,-0.1617361328125,0.78700365234375,-27.54634209127615,-7.2322353427066215,-44.845560953073495
1694133534.9353304,0.0017900781249999996,0.0035932031249999996,1.007070546875,-0.18122994140625004,1.0894845703125,-0.29637037109375,-26.099376722135524,-6.440191031671466,-46.588210712106694
1694133534.9553342,0.0020342187499999996,0.0037763085937499996,1.00664330078125,0.03239310546874996,0.6622384765625,1.404984609375,-26.374941479703885,-6.30417251409334,-46.5505771520481
1694133534.9753838,0.0021562890624999996,0.0034100976562499996,1.0081691796875,-0.25752388671875004,-0.01677763671874999,0.3521281640625,-27.409941943937284,-7.1839619789370905,-45.50025691877173
1694133534.995351,0.0020952539062499996,0.0032269921874999996,1.0074367578125,0.15446341796874996,1.18866669921875,-0.35740552734375,-26.6101247637615,-5.978676824151934,-47.094309891550054
1694133535.0153632,0.0019731835937499996,0.0031049218749999996,1.00688744140625,-0.6466230078125,0.4180978515625,-0.54051099609375,-27.21616933224295,-6.940740539483965,-46.3120529444065
1694133535.0353749,0.0023393945312499996,0.0031049218749999996,1.00713158203125,-0.32618843750000004,0.02899873046875001,0.32923998046875,-26.053398822843533,-6.300614207452716,-46.364512953805914
1694133535.05535,0.0019731835937499996,0.0032880273437499996,1.00713158203125,0.42912162109374996,0.46387421875,0.87855638671875,-26.28874911935232,-6.677281806573809,-46.69418177924537
1694133535.0753517,0.0020952539062499996,0.0035321679687499996,1.0074367578125,-0.15834175781250004,1.11237275390625,1.33632005859375,-26.60721253341482,-7.251548418390216,-45.513484589426035
1694133535.0953774,0.0024004296874999996,0.0036542382812499996,1.00774193359375,0.06291068359374996,0.6622384765625,0.489457265625,-26.402793495939235,-6.427408989679278,-47.63502448810767
1694133535.115365,0.0025835351562499996,0.0037152734374999996,1.007558828125,0.06291068359374996,0.85297333984375,0.74122728515625,-27.38997355636404,-7.49978991643709,-46.12862000666236
1694133535.135384,0.0019731835937499996,0.0035932031249999996,1.0071926171875,-0.005753867187500039,1.5472482421875,0.77174486328125,-26.19297643185232,-6.786180313409746,-46.929488476877204
1694133535.1553817,0.0030107812499999996,0.0035932031249999996,1.00774193359375,-0.08204781250000004,0.70038544921875,-0.92198072265625,-26.650441916715604,-6.933320855890216,-46.00940540265845
1694133535.1753757,0.0022173242187499996,0.0032880273437499996,1.00749779296875,0.18498099609374996,0.128180859375,-0.76939283203125,-26.400188198820093,-7.254425745050371,-46.601189187204355
1694133535.1954417,0.0024614648437499996,0.0033490624999999996,1.0079250390625,0.08579886718749996,0.60883271484375,1.313431875,-26.60952347054861,-6.531634192315996,-47.42578609577369
1694133535.2154052,0.0024004296874999996,0.0038373437499999996,1.00774193359375,-0.25752388671875004,0.89874970703125,1.0235148828125,-27.946788457242945,-7.546767433526934,-45.31695675654029
1694133535.2353923,0.0024614648437499996,0.0033490624999999996,1.008047109375,-0.18885933593750004,0.34943330078125,-0.18955884765624997,-26.495283814908962,-6.202672472101153,-46.17752506330298
1694133535.2553947,0.0021562890624999996,0.0035932031249999996,1.00780296875,0.06291068359374996,0.006110546875000011,0.39027513671875,-26.390985737882595,-7.234194074640216,-45.70739309516334
1694133535.275402,0.0027056054687499996,0.0032269921874999996,1.0071926171875,-0.50166451171875,0.44098603515625,0.733597890625,-26.602066394620877,-5.982179611749591,-46.22242896918677
1694133535.2954004,0.0024004296874999996,0.0031049218749999996,1.00780296875,0.23075736328124996,0.89874970703125,0.42079271484375,-26.601316175260525,-6.138275771417559,-46.846436364816654
1694133535.315405,0.0022173242187499996,0.0031659570312499996,1.0073146875,0.009504921874999961,-0.61187041015625,0.489457265625,-27.986577718473416,-7.049624718194902,-46.19911904523658
1694133535.3354073,0.0033159570312499996,0.0034100976562499996,1.00780296875,-0.05915962890625004,0.44098603515625,-1.6009968359375,-26.499460855924585,-6.099946430597248,-47.05369140754127
1694133535.3554115,0.0017900781249999996,0.0034711328124999996,1.00700951171875,-0.42537056640625004,1.5472482421875,-1.10508619140625,-27.664430335416775,-7.324419967706621,-46.13856653009986
1694133535.3754194,0.0026445703124999996,0.0029218164062499996,1.00786400390625,-0.11256539062500004,1.28021943359375,-1.341597421875,-26.573220624967558,-6.763444254815996,-46.66989254511451
1694133535.3954194,0.0022173242187499996,0.0035321679687499996,1.00737572265625,0.08579886718749996,0.44098603515625,-0.7159870703125,-26.87385141659353,-6.403321565362872,-46.16051615131568
1694133535.4154236,0.0020342187499999996,0.00402044921875,1.00780296875,0.009504921874999961,2.02790009765625,0.80226244140625,-27.843104187345485,-7.060358224054277,-45.853365489328375
1694133535.4354281,0.0022783593749999996,0.0035932031249999996,1.00798607421875,0.06291068359374996,1.043708203125,-0.2582233984375,-26.17264685214041,-6.631956848077715,-46.77545973151588
1694133535.4555168,0.0024614648437499996,0.0037152734374999996,1.00761986328125,0.08579886718749996,-0.4669119140625,0.58101,-27.955288032438258,-7.4635727470034965,-46.57079373249243
1694133535.4754426,0.0019731835937499996,0.0033490624999999996,1.00780296875,-0.05915962890625004,0.8758615234375,0.29872240234375,-26.419501034269313,-6.575648934015216,-46.06890047150611
1694133535.495435,0.0028887109374999996,0.0026166406249999996,1.00713158203125,0.08579886718749996,1.043708203125,-0.426070078125,-26.260175150358183,-6.586812738702717,-46.75522407648658
1694133535.5154495,0.0027666406249999996,0.0034711328124999996,1.00688744140625,0.15446341796874996,0.44098603515625,0.24531664062500003,-26.48594719979666,-7.068720130304277,-45.623641521921144
1694133535.5354416,0.0024614648437499996,0.0035932031249999996,1.0079250390625,0.79533255859375,1.1352609375,0.32923998046875,-26.639245945035913,-6.478945684991779,-46.728707462594976
1694133535.555456,0.0022783593749999996,0.0034711328124999996,1.00786400390625,-1.1349042578125,1.837165234375,0.75648607421875,-27.46289163448904,-6.608148208429279,-46.75296887836647
1694133535.5754614,0.0025835351562499996,0.0033490624999999996,1.00749779296875,-0.32618843750000004,0.8758615234375,0.17665208984375003,-26.57594522872732,-6.551464226007404,-45.13079644538306
1694133535.5954537,0.0022783593749999996,0.0033490624999999996,1.00749779296875,0.13157523437499996,-0.56609404296875,1.2371379296875,-26.436362225309352,-6.674285998468339,-46.08768845466041
1694133535.6154583,0.0019731835937499996,0.0031049218749999996,1.00749779296875,-0.40248238281250004,0.799567578125,0.306351796875,-26.119023582487088,-7.165740798761309,-45.62779416828346
1694133535.6354542,0.0025224999999999996,0.0037152734374999996,1.00774193359375,-0.08204781250000004,1.52436005859375,0.733597890625,-26.77178279122732,-6.107076741144122,-46.06932489460181
1694133535.6554768,0.0025224999999999996,0.0037763085937499996,1.0071926171875,0.10868705078124996,-0.23040068359375,1.12269701171875,-27.651852191617944,-7.612548553644123,-46.30942870588111
1694133535.6755285,0.0027056054687499996,0.0036542382812499996,1.0074367578125,0.38334525390624996,0.70801484375,0.4436808984375,-26.247156781217555,-6.5131373783511535,-45.680214171945565
1694133535.6954777,0.0022783593749999996,0.0036542382812499996,1.0084133203125,-0.47877632812500004,0.99030244140625,-0.975386484375,-26.66252367416189,-6.8766949066714655,-46.17254066950416
1694133535.715479,0.0023393945312499996,0.0037152734374999996,1.00786400390625,0.009504921874999961,0.9674142578125,-1.51707349609375,-26.55945645016287,-6.678973020929279,-45.560938530588146
1694133535.7355647,0.0025835351562499996,0.0035932031249999996,1.0079250390625,0.32993949218749996,-0.35247099609375,-0.13615308593749997,-26.44397148238943,-6.016542196710528,-46.942161006418225
1694133535.7555482,0.0027056054687499996,0.0036542382812499996,1.00798607421875,-0.66951119140625,1.81427705078125,1.0540324609375,-27.59497611361502,-7.186097841241778,-46.13253132319068
1694133535.7755322,0.0019121484374999996,0.00402044921875,1.00774193359375,-0.11256539062500004,0.921637890625,-1.92143140625,-26.014893633512475,-6.299694387140216,-46.352759051584236
1694133535.7955198,0.0025835351562499996,0.0035932031249999996,1.0076808984375,0.10868705078124996,-0.30669462890625,0.367386953125,-27.290650014005642,-7.386745666925371,-45.559241173898684
1694133535.815587,0.0025224999999999996,0.0027997460937499996,1.00780296875,-0.03627144531250004,1.03607880859375,1.13032640625,-26.425593846403103,-6.294245949151935,-46.53996708674048
1694133535.8355188,0.0025835351562499996,0.0037763085937499996,1.0073146875,-0.25752388671875004,1.3031076171875,-1.80699048828125,-25.918660613615014,-5.998257423273028,-46.90411914350318
1694133535.855531,0.0026445703124999996,0.0034100976562499996,1.00761986328125,0.03239310546874996,1.593024609375,-1.1432331640625,-27.056436021940215,-7.5523218812808395,-45.79091380414771
1694133535.8755164,0.0025835351562499996,0.0031659570312499996,1.00823021484375,0.18498099609374996,0.68512666015625,-0.5023640234375,-26.210011323331813,-6.257524888116777,-46.88382368366431
1694133535.8955104,0.0027666406249999996,0.0032269921874999996,1.00737572265625,0.01713431640624996,1.49384248046875,1.53468431640625,-27.270595727262478,-7.261613436944903,-45.31219497248268
1694133535.9155154,0.0017900781249999996,0.0035321679687499996,1.00749779296875,0.06291068359374996,1.470954296875,-1.9672077734375,-26.073916815641386,-6.484464585870684,-46.414030980539316
1694133535.9356048,0.0020952539062499996,0.0038373437499999996,1.00725365234375,-0.05915962890625004,-0.543205859375,0.977738515625,-26.753600374967554,-6.337393896417559,-45.887109997018804
1694133535.955523,0.0023393945312499996,0.0038373437499999996,1.0074367578125,-0.40248238281250004,0.677497265625,1.61097826171875,-26.328826052579863,-7.402492340753497,-46.548266724802005
1694133535.9755251,0.0023393945312499996,0.0037152734374999996,1.00823021484375,0.20786917968749996,2.05078828125,0.13087572265625003,-26.65900102657889,-5.90520226409334,-45.801898075265875
1694133535.995552,0.0026445703124999996,0.0031659570312499996,1.00713158203125,0.08579886718749996,-0.4974294921875,0.22242845703125003,-27.172741296232203,-7.031750887140216,-45.39018858796119
1694133536.0156178,0.0020952539062499996,0.0034711328124999996,1.00859642578125,0.23075736328124996,0.89874970703125,1.00825609375,-26.4104283731365,-6.462251102472247,-45.580582635934825
1694133536.035539,0.0020952539062499996,0.0037763085937499996,1.008535390625,-0.35670601562500004,1.06659638671875,-0.4718464453125,-26.45193591146658,-6.996381786554278,-45.030103530221936
1694133536.055625,0.0025224999999999996,0.0035932031249999996,1.008047109375,0.35282767578124996,1.2115548828125,1.19899095703125,-26.34991265829275,-7.3236061361636535,-46.40277781525611
1694133536.0755453,0.0031938867187499996,0.0035932031249999996,1.0079250390625,0.04002249999999996,-0.543205859375,1.29054369140625,-26.727709442716577,-6.032728517023028,-45.77398917218971
1694133536.0955486,0.0025835351562499996,0.0037152734374999996,1.008047109375,0.009504921874999961,-0.2075125,1.0235148828125,-27.180703585905057,-7.015918764581623,-44.94364526069068
1694133536.1156344,0.0026445703124999996,0.0034711328124999996,1.00823021484375,0.13157523437499996,0.53253876953125,0.42079271484375,-25.863621332853295,-6.127598358331621,-45.9460810862522
1694133536.1355798,0.0016680078124999996,0.0034711328124999996,1.00780296875,0.23075736328124996,0.128180859375,1.45839037109375,-27.070246118131617,-6.8458962304019355,-44.78954403388404
1694133536.1555834,0.0017290429687499996,0.0032269921874999996,1.00780296875,-0.40248238281250004,0.63935029296875,0.977738515625,-26.14856672482107,-5.843848122491778,-46.167278637765875
1694133536.175583,0.0019121484374999996,0.0034100976562499996,1.00859642578125,-0.08204781250000004,0.9674142578125,1.58046068359375,-26.334141300138455,-6.332797288019121,-46.170503169748294
1694133536.1955814,0.0024614648437499996,0.0034100976562499996,1.00810814453125,0.23075736328124996,0.8758615234375,-1.39500318359375,-27.554310147550563,-6.954664420831621,-45.49998409174537
1694133536.21566,0.0023393945312499996,0.0036542382812499996,1.0084133203125,0.009504921874999961,-0.3295828125,-0.22770582031249997,-26.35450018649099,-6.548417290460527,-46.069537427560796
1694133536.2355864,0.0024614648437499996,0.0037152734374999996,1.00774193359375,-0.06678902343750004,-0.03966582031249999,-0.26585279296875,-27.367681852628685,-7.342270065851154,-45.779741475290294
1694133536.2556887,0.0028887109374999996,0.0034100976562499996,1.00737572265625,-0.08204781250000004,1.44806611328125,-1.44077955078125,-26.426768284879667,-6.564102233331621,-45.530411043649664
1694133536.2755878,0.0023393945312499996,0.0037152734374999996,1.0084133203125,-0.05915962890625004,-1.14592802734375,-1.5399616796875,-26.267873367399194,-6.2979838373355275,-46.068236440378186
1694133536.295657,0.0029497460937499996,0.0034711328124999996,1.0081691796875,-0.013383261718750039,0.77667939453125,1.62623705078125,-27.809006019132593,-6.988555558038653,-45.248334235055914
1694133536.315599,0.0027666406249999996,0.0038373437499999996,1.00786400390625,-0.35670601562500004,1.2115548828125,-1.6620319921875,-26.98283873299978,-6.505437110773028,-46.443721655099864
1694133536.3356018,0.0023393945312499996,0.0026776757812499996,1.0081691796875,-0.13545357421875004,-1.5350271484375,-0.83042798828125,-27.824205272062283,-7.341276042901935,-45.38221199421119
1694133536.3556752,0.0025224999999999996,0.0032269921874999996,1.00749779296875,0.20786917968749996,0.15106904296875,-0.86094556640625,-26.281581989713647,-6.187616729913653,-45.27030995282936
1694133536.375668,0.0027666406249999996,0.0033490624999999996,1.00798607421875,-0.25752388671875004,0.8758615234375,-1.22715650390625,-26.544087910490013,-6.786652992608966,-44.833562042184816
1694133536.3956501,0.0023393945312499996,0.0034711328124999996,1.0079250390625,0.13157523437499996,0.9979318359375,-1.18138013671875,-26.700204024625762,-6.975066309991778,-45.68687021467017
1694133536.4156291,0.0017900781249999996,0.0031049218749999996,1.00786400390625,-0.05915962890625004,0.44098603515625,0.7183391015625,-26.592435360197047,-6.329108664972246,-46.4595723317356
1694133536.4356136,0.0025224999999999996,0.0032269921874999996,1.008047109375,0.06291068359374996,0.99030244140625,1.07692064453125,-27.63869513595388,-7.339602286554278,-46.05740425458716
1694133536.4556398,0.0016069726562499996,0.0034100976562499996,1.00780296875,-0.05915962890625004,0.94452607421875,-0.029341562499999974,-26.32448978646658,-6.284545737726153,-45.34673800861549
1694133536.4756267,0.0023393945312499996,0.0034100976562499996,1.007558828125,-0.31092964843750004,-0.90178740234375,-0.021712167968749974,-26.055753525724395,-7.204809110773029,-45.53380663508033
1694133536.4956303,0.0023393945312499996,0.0033490624999999996,1.00749779296875,0.05528128906249996,0.48676240234375,0.58101,-26.411868177823997,-6.284036265069904,-46.48294957172584
1694133536.5156474,0.0022173242187499996,0.0025556054687499996,1.00810814453125,-0.05915962890625004,0.53253876953125,0.4741984765625,-26.382678202970485,-6.089605162530841,-46.91552601545143
1694133536.5356312,0.0019121484374999996,0.0032269921874999996,1.0073146875,-0.06678902343750004,1.1200021484375,-0.4108112890625,-27.75401548422049,-7.389748344659747,-45.872686939157475
1694133536.555713,0.0020952539062499996,0.0029828515624999996,1.00798607421875,0.08579886718749996,-0.23040068359375,0.3216105859375,-26.364260040006616,-6.549817921319904,-47.101788348215095
1694133536.5756412,0.0020952539062499996,0.0031659570312499996,1.00761986328125,-0.13545357421875004,0.9674142578125,0.39027513671875,-26.707713887907012,-7.2828316298159965,-45.19183259870338
1694133536.5956628,0.0027666406249999996,0.0035932031249999996,1.00774193359375,-0.23463570312500004,1.18866669921875,-0.81516919921875,-26.493329537565213,-6.3070878656558405,-45.530688292795176
1694133536.6156561,0.0022783593749999996,0.0033490624999999996,1.008047109375,0.04002249999999996,-0.64238798828125,0.45131029296875,-26.1917171342449,-6.260089150812091,-46.28715850544165
1694133536.635708,0.0025224999999999996,0.0035932031249999996,1.008047109375,-0.45588814453125004,-0.2532888671875,1.9390422265625,-27.554385807096462,-7.198034286554278,-45.84493911921119
1694133536.655706,0.0028276757812499996,0.0034711328124999996,1.00749779296875,-0.43299996093750004,0.58594453125,-1.2042683203125,-26.476978405485134,-6.449142278253498,-45.91432164997291
1694133536.6756778,0.0029497460937499996,0.0034100976562499996,1.0071926171875,-0.13545357421875004,-0.3295828125,-1.4178913671875,-27.635547040250756,-7.589927215753496,-44.67017757978248
1694133536.6957068,0.0024004296874999996,0.0035932031249999996,1.007558828125,-0.23463570312500004,0.02899873046875001,1.91615404296875,-25.905852176847436,-6.534114868585528,-46.00903031879615
1694133536.7156658,0.0020952539062499996,0.0031049218749999996,1.00749779296875,-0.013383261718750039,1.470954296875,1.649125234375,-26.163552731046657,-6.564874258233966,-46.090149398996346
1694133536.7356818,0.0027056054687499996,0.0032880273437499996,1.00810814453125,-0.28041207031250004,1.52436005859375,-0.014082773437499974,-26.02514759908865,-7.232156126886311,-46.24344988630103
1694133536.7556872,0.0024004296874999996,0.0029218164062499996,1.00810814453125,-0.05915962890625004,-0.93230498046875,0.18428148437500003,-25.95725611581228,-6.273245377862873,-47.133330829416266
1694133536.7756755,0.0020342187499999996,0.0037152734374999996,1.00786400390625,-0.5245526953125,0.799567578125,1.466019765625,-27.677952937589627,-7.274304470148028,-46.42759200751685
1694133536.7956808,0.0025224999999999996,0.0035321679687499996,1.0074367578125,-0.34907662109375004,1.3336251953125,-0.18192945312499997,-26.433813402067166,-6.628424115655839,-46.00937832758521
1694133536.8156905,0.0022783593749999996,0.0037152734374999996,1.00810814453125,-0.18122994140625004,-1.7944265625,1.25239671875,-26.100246561002713,-6.619559543390215,-45.92666661261939
1694133536.8356855,0.0025224999999999996,0.0034100976562499996,1.0073146875,-0.05915962890625004,0.73090302734375,0.9319621484375,-26.331042009611114,-7.481195203058185,-46.453106557809825
1694133536.855778,0.0021562890624999996,0.0033490624999999996,1.007558828125,-0.05915962890625004,1.593024609375,-0.18192945312499997,-26.15860634432791,-6.333669089776934,-46.535999898263924
1694133536.875701,0.0022783593749999996,0.0026166406249999996,1.00798607421875,0.06291068359374996,1.165778515625,-0.66258130859375,-27.38147086105154,-7.028808735773028,-47.20421320636939
1694133536.895749,0.0022783593749999996,0.0029218164062499996,1.00810814453125,0.20786917968749996,-0.81023466796875,-0.73887525390625,-26.153192877897244,-6.395363095148029,-47.06085335260962
1694133536.9157002,0.0018511132812499996,0.0031659570312499996,1.0074367578125,-0.37959419921875004,0.58594453125,1.18373216796875,-26.655055437223414,-7.197367003839435,-45.39008460932349
1694133536.935792,0.0026445703124999996,0.0034100976562499996,1.00810814453125,-0.18122994140625004,1.32599580078125,0.15376390625000003,-26.31905044637869,-6.559447017999591,-46.33255047162818
1694133536.955752,0.0025835351562499996,0.0035321679687499996,1.00823021484375,-0.18122994140625004,-0.9246755859375,0.39790453125,-26.16427946969412,-6.71186389641756,-46.909542258371346
1694133536.9757206,0.0025835351562499996,0.0031049218749999996,1.00749779296875,0.06291068359374996,0.02899873046875001,0.71070970703125,-27.818636132169704,-7.7093434843081825,-45.96254620075416
1694133536.9957266,0.0025835351562499996,0.0037763085937499996,1.0074367578125,-0.08204781250000004,0.2960275390625,1.3897258203125,-26.22085536178396,-6.88093480315584,-46.77650007905005
1694133537.0158205,0.0019121484374999996,0.0033490624999999996,1.0074367578125,0.23075736328124996,0.03662812500000001,0.34449876953125,-27.58153260397146,-7.754187016534746,-46.394425394357675
1694133537.0357194,0.0022783593749999996,0.0037152734374999996,1.00780296875,0.30705130859374996,0.2960275390625,1.893265859375,-26.64132866927908,-6.376210896417559,-46.0221045180149
1694133537.0557835,0.0021562890624999996,0.0032269921874999996,1.00761986328125,0.16209281249999996,0.89874970703125,0.5657512109375,-26.03396293490408,-6.369322535089435,-46.728373852243415
1694133537.075726,0.0025224999999999996,0.0037152734374999996,1.00786400390625,-0.57795845703125,1.69220673828125,-0.20481763671874997,-27.191578283903105,-7.605878450616777,-46.340245140085216
1694133537.0957253,0.0022783593749999996,0.00414251953125,1.00725365234375,-0.10493599609375004,-0.64238798828125,-1.1737507421875,-26.028521201871854,-6.554345292413652,-46.731745068918215
1694133537.1159065,0.0022173242187499996,0.0030438867187499996,1.0074367578125,-0.33381783203125004,-0.27617705078125,0.26820482421875,-27.25463607467459,-7.4936199442691205,-45.35930964863014
1694133537.135758,0.0022173242187499996,0.0035932031249999996,1.00749779296875,0.16209281249999996,0.44098603515625,-1.60862623046875,-26.03226488351248,-6.6390229286441205,-46.77396837507057
1694133537.1558325,0.0018511132812499996,0.0034100976562499996,1.0076808984375,-0.08204781250000004,-0.64238798828125,-0.670210703125,-26.284980544767365,-6.364315600030841,-46.249001455026615
1694133537.1758006,0.0014238671874999996,0.0029828515624999996,1.00749779296875,0.5740801171875,-1.35955107421875,0.3216105859375,-25.73211692428396,-7.547891136163654,-46.3878071463108
1694133537.1957808,0.0019731835937499996,0.0036542382812499996,1.00780296875,0.009504921874999961,0.44098603515625,-0.64732251953125,-25.91757078072927,-6.890429206964434,-47.1176058058567
1694133537.2157884,0.0029497460937499996,0.0031659570312499996,1.00749779296875,-0.15834175781250004,1.18866669921875,-0.21244703124999997,-27.46241204086111,-7.866020826105059,-45.49395492829322
1694133537.2357786,0.0020952539062499996,0.0035932031249999996,1.00823021484375,-0.33381783203125004,-1.2908865234375,0.054581777343750026,-26.30371256625174,-6.633676760675371,-47.109097467233646
1694133537.2558138,0.0019731835937499996,0.0031049218749999996,1.007558828125,-0.31092964843750004,0.921637890625,0.024064199218750026,-25.87157485445974,-7.071771436456622,-46.90288007172584
1694133537.2758217,0.0021562890624999996,0.0039594140625,1.00749779296875,-0.25752388671875004,1.2115548828125,-0.72361646484375,-26.088506615812282,-7.562002715265216,-44.79597723163794
1694133537.295788,0.0025835351562499996,0.0033490624999999996,1.00774193359375,-0.22700630859375004,-1.36718046875,-0.15141187499999997,-26.149794382169706,-6.844885359308185,-46.16960115192603
1694133537.3157747,0.0022173242187499996,0.0034100976562499996,1.008047109375,-0.16597115234375004,-0.56609404296875,0.23768724609375003,-27.29777177145193,-7.252941569757402,-45.51924745856666
1694133537.3357835,0.0022173242187499996,0.0034100976562499996,1.00798607421875,-0.13545357421875004,0.10529267578125001,-0.29637037109375,-26.08150227914236,-6.409378637140215,-46.17650909052467
1694133537.3558834,0.0024004296874999996,0.0029218164062499996,1.00786400390625,-0.08204781250000004,-1.2908865234375,-0.036970957031249974,-26.61969496993826,-7.29773957659334,-46.647032162302004
1694133537.3758185,0.0020342187499999996,0.0032269921874999996,1.006582265625,-0.03627144531250004,-0.52031767578125,-0.16667066406249997,-26.051553925382596,-6.54290397063631,-45.14968521759986
1694133537.3958125,0.0018511132812499996,0.0033490624999999996,1.00725365234375,-0.47877632812500004,-0.59661162109375,0.8098918359375,-26.06673540487478,-6.310750319757403,-47.740490396188726
1694133537.4158168,0.0027056054687499996,0.0034100976562499996,1.00859642578125,-0.13545357421875004,-0.3295828125,-1.463667734375,-27.117114335538847,-7.56002216985506,-45.41260621637916
1694133537.4358137,0.0023393945312499996,0.0032880273437499996,1.007558828125,-0.08204781250000004,0.22736298828125,0.15376390625000003,-26.173947598112086,-5.907822024835529,-45.87797812226295
1694133537.455839,0.0020952539062499996,0.0033490624999999996,1.00700951171875,-0.11256539062500004,0.31891572265625,0.8098918359375,-27.793835092130642,-7.138727455499589,-45.72337801508522
1694133537.4758532,0.0019731835937499996,0.0032269921874999996,1.00798607421875,-0.08204781250000004,-0.01677763671874999,0.83278001953125,-26.430363040372832,-6.251918661065998,-45.86516554120826
1694133537.495844,0.0025224999999999996,0.0033490624999999996,1.00713158203125,-0.33381783203125004,-1.1688162109375,0.977738515625,-26.000378199308376,-6.186594023858964,-46.64428915790748
1694133537.5158365,0.0023393945312499996,0.0034711328124999996,1.0074367578125,-0.18122994140625004,-0.23040068359375,0.46656908203125,-27.559332193815212,-7.429239455011309,-45.39908861994361
1694133537.5358238,0.0017900781249999996,0.0032880273437499996,1.007558828125,-0.15834175781250004,0.44098603515625,1.39735521484375,-26.38598405221365,-5.902357375421466,-46.69431848761939
1694133537.5558891,0.0023393945312499996,0.0032269921874999996,1.00761986328125,-0.18885933593750004,-1.214592578125,-0.22007642578124997,-27.725991061124784,-7.172736458429277,-46.524171049509036
1694133537.5758233,0.0017900781249999996,0.0036542382812499996,1.00786400390625,-0.21174751953125004,-1.52739775390625,1.2371379296875,-26.52415006381033,-5.816588432550372,-46.79097001105689
1694133537.5958264,0.0021562890624999996,0.0035321679687499996,1.0079250390625,-0.15834175781250004,-0.4974294921875,0.6878215234375,-26.571476161344506,-6.2249501854800595,-46.02809825141333
1694133537.6159213,0.0026445703124999996,0.0036542382812499996,1.00798607421875,-0.05915962890625004,0.6317208984375,0.64204515625,-26.469148055021268,-7.367479952081621,-45.30082908478737
1694133537.6359186,0.0027056054687499996,0.00402044921875,1.0081691796875,-0.5245526953125,-0.97808134765625,-0.914351328125,-26.29253670162771,-6.227833114190997,-46.266474052560795
1694133537.655843,0.0021562890624999996,0.0032269921874999996,1.007558828125,0.15446341796874996,-0.61187041015625,-1.616255625,-27.613467543180445,-6.879376425226154,-45.30878277155494
1694133537.6758378,0.0023393945312499996,0.0035932031249999996,1.00774193359375,0.16209281249999996,0.58594453125,-1.463667734375,-26.520348868253688,-6.420064145440998,-46.56969825629615
1694133537.6958833,0.0026445703124999996,0.0031659570312499996,1.00774193359375,0.18498099609374996,-1.02385771484375,0.39027513671875,-26.089374374601345,-7.371920648858964,-45.687386582590094
1694133537.715848,0.0020342187499999996,0.0035321679687499996,1.0084133203125,-0.30330025390625004,-1.2908865234375,1.36683763671875,-25.803810465177516,-6.209388058526934,-44.68040332819556
1694133537.7358541,0.0026445703124999996,0.0037152734374999996,1.00810814453125,-0.28804146484375004,0.08240449218750001,1.06166185546875,-26.338020235319114,-6.342142018976153,-45.183776501535405
1694133537.7558548,0.0024614648437499996,0.0034100976562499996,1.0074367578125,-0.31092964843750004,0.8758615234375,0.5352336328125,-27.53242249654959,-6.548344355401936,-46.240043086008065
1694133537.7758644,0.0025224999999999996,0.0038373437499999996,1.0073146875,-0.31092964843750004,-1.3824392578125,1.06929125,-26.273262313077907,-6.354650340753498,-47.76325996625709
1694133537.7958565,0.0030718164062499996,0.0034100976562499996,1.008047109375,0.30705130859374996,0.006110546875000011,0.10798753906250003,-27.47840780673025,-7.618397345636309,-45.51633550531959
1694133537.8158567,0.0021562890624999996,0.0034711328124999996,1.00761986328125,-0.13545357421875004,0.56305634765625,0.5962687890625,-25.98525570528982,-6.888189828058184,-46.16632900251197
1694133537.8358834,0.0020342187499999996,0.0032269921874999996,1.00700951171875,-0.45588814453125004,-0.73394072265625,-0.13615308593749997,-25.83103972823904,-6.931897143976153,-45.89933437153052
1694133537.8558679,0.0021562890624999996,0.0036542382812499996,1.0079250390625,-0.30330025390625004,-0.47454130859375,-0.88383375,-27.376777994474388,-7.15258209954256,-44.82465905585669
1694133537.8758864,0.0024614648437499996,0.0029828515624999996,1.00835228515625,-0.37959419921875004,0.05951630859375001,-0.036970957031249974,-26.135505867277125,-6.83567345891756,-47.408557039133065
1694133537.895885,0.0027666406249999996,0.0035932031249999996,1.008047109375,-0.37959419921875004,0.46387421875,-0.32688794921875,-27.180622531949982,-7.380936777276934,-46.120557765573494
1694133537.915901,0.0028887109374999996,0.0037763085937499996,1.0076808984375,-0.05915962890625004,-1.336662890625,0.016434804687500026,-25.903393666471462,-6.7623211200503714,-46.14817797541236
1694133537.9358811,0.0026445703124999996,0.0036542382812499996,1.0071926171875,-0.20411812500000004,-0.47454130859375,0.054581777343750026,-26.089497308439235,-6.729546863702716,-45.68093579682349
1694133537.9558823,0.0024614648437499996,0.0033490624999999996,1.007558828125,-0.03627144531250004,0.2960275390625,-0.975386484375,-27.417472227140408,-7.260686767999592,-45.97868852497291
1694133537.9759064,0.0022173242187499996,0.0035932031249999996,1.00823021484375,-0.13545357421875004,-1.48162138671875,-0.57865796875,-26.376588764493924,-6.019390825128497,-46.562984619821535
1694133537.9958873,0.0019121484374999996,0.0034100976562499996,1.00761986328125,0.25364554687499996,-1.06963408203125,-1.47129712890625,-27.114126699186308,-7.683730708917558,-45.93478128205299
1694133538.0159013,0.0023393945312499996,0.0032269921874999996,1.00829125,-0.70002876953125,0.89874970703125,0.19191087890625003,-26.463429929655053,-6.712465050714434,-46.08625518122291
1694133538.0359168,0.0022173242187499996,0.0034100976562499996,1.00688744140625,-0.43299996093750004,-1.092522265625,-0.78465162109375,-26.36463453256033,-7.145414358819902,-45.997764966135016
1694133538.0559034,0.0024614648437499996,0.0036542382812499996,1.00780296875,0.04002249999999996,-0.65764677734375,-0.55576978515625,-26.381529503263454,-7.76477706145662,-45.191046257638924
1694133538.0759523,0.0024004296874999996,0.0034711328124999996,1.007558828125,0.38334525390624996,-0.59661162109375,-0.70835767578125,-26.29128776229666,-7.151774521905839,-46.32947694599341
1694133538.0959115,0.0029497460937499996,0.0037152734374999996,1.00823021484375,-0.23463570312500004,0.372321484375,0.3216105859375,-27.334245003141383,-7.3716774740542785,-46.17960231476783
1694133538.115932,0.0023393945312499996,0.0034100976562499996,1.00774193359375,-0.33381783203125004,-1.1382986328125,0.5962687890625,-26.285520950407008,-6.851128903253496,-45.6199515825901
1694133538.13594,0.0026445703124999996,0.0037763085937499996,1.00774193359375,-0.03627144531250004,-1.214592578125,-0.14378248046874997,-26.33869289303396,-7.451888818292559,-46.03008543342017
1694133538.1559267,0.0019731835937499996,0.0034711328124999996,1.007558828125,-0.37959419921875004,1.043708203125,1.404984609375,-26.185540815885524,-6.190410491144122,-45.923123847238536
1694133538.1759706,0.0028276757812499996,0.0035321679687499996,1.00725365234375,0.01713431640624996,0.1739572265625,0.76411546875,-25.82061886886404,-6.549714383722247,-46.397586053903574
1694133538.196014,0.0026445703124999996,0.0032269921874999996,1.0079250390625,-0.15834175781250004,-0.61187041015625,-1.0821980078125,-27.23794760336111,-7.209186235284747,-46.13998491584204
1694133538.2159626,0.0027056054687499996,0.0031659570312499996,1.0074367578125,-0.600846640625,-0.06255400390624999,-0.69309888671875,-26.04137567867849,-6.480033230890216,-45.69138871186256
1694133538.2359705,0.0019731835937499996,0.0032269921874999996,1.00713158203125,-0.13545357421875004,0.56305634765625,-2.11216626953125,-28.05432021627615,-6.985453124444903,-45.51432999201392
1694133538.25595,0.0022173242187499996,0.0034711328124999996,1.00810814453125,0.30705130859374996,-0.68816435546875,-0.57102857421875,-26.18673567428396,-6.22922624456209,-45.88703702631568
1694133538.2759538,0.0027666406249999996,0.0031659570312499996,1.00725365234375,-0.05915962890625004,-0.30669462890625,-0.33451734375,-26.77638405135916,-6.430303143487873,-46.559942591379155
1694133538.2959456,0.0025224999999999996,0.0031049218749999996,1.00761986328125,-0.08204781250000004,0.1739572265625,-0.975386484375,-27.64892206918142,-7.048103743585527,-47.01065222016334
1694133538.315985,0.0021562890624999996,0.0032269921874999996,1.008047109375,-0.11256539062500004,-1.19170439453125,-0.15904126953124997,-26.306678742643335,-6.55628346331209,-46.38992990461158
1694133538.3360386,0.0025224999999999996,0.0035932031249999996,1.0069484765625,-0.03627144531250004,-0.5889822265625,0.15376390625000003,-27.65369910983084,-7.1134882343081856,-45.88386369013404
1694133538.355959,0.0025835351562499996,0.0037763085937499996,1.00700951171875,0.06291068359374996,-0.01677763671874999,0.23005785156250003,-26.557475199796656,-6.1856492660464655,-46.06409819245337
1694133538.37596,0.0022173242187499996,0.0029218164062499996,1.0074367578125,-0.28041207031250004,-0.2838064453125,-0.7617634375,-26.281949929166775,-5.954433488214434,-46.28975222529029
1694133538.3959618,0.0025835351562499996,0.0036542382812499996,1.00713158203125,-0.5245526953125,-0.87889921875,-0.98301587890625,-26.286654861906033,-7.30349419378084,-45.19885179194068
1694133538.415982,0.0025224999999999996,0.0031659570312499996,1.00700951171875,-0.15834175781250004,-0.44402373046875,-0.69309888671875,-26.182980772306422,-6.388454151788654,-46.17827548505592
1694133538.4360125,0.0028887109374999996,0.0031659570312499996,1.00786400390625,0.06291068359374996,0.4180978515625,-0.24296460937499997,-27.33315167794607,-7.363024311456622,-46.09968515448951
1694133538.4559772,0.0019121484374999996,0.0034100976562499996,1.0079250390625,0.32993949218749996,-0.93230498046875,0.86329759765625,-26.373091128507593,-6.528629021417559,-46.770177646677006
1694133538.475988,0.0024614648437499996,0.0035321679687499996,1.00664330078125,-0.013383261718750039,-1.22222197265625,-0.052229746093749974,-26.04522432650564,-6.869477269952716,-45.82357255793189
1694133538.4959853,0.0024614648437499996,0.0032269921874999996,1.00688744140625,-0.18122994140625004,-0.30669462890625,0.22242845703125003,-26.268341546476346,-6.8160310868472465,-45.300196061594
1694133538.5160604,0.0028276757812499996,0.0032880273437499996,1.0073146875,-2.2640546484375,-1.092522265625,-1.2042683203125,-26.223922031339626,-6.648978807550372,-46.71780526044654
1694133538.5360498,0.0024004296874999996,0.0032269921874999996,1.0074367578125,0.08579886718749996,-0.543205859375,-2.14268384765625,-26.930355141447045,-7.229847552667558,-45.97592276716041
1694133538.5560083,0.0024614648437499996,0.0032880273437499996,1.0069484765625,0.13920462890624996,-0.7415701171875,-0.90672193359375,-26.423305662809355,-6.246777033136309,-46.496136747385016
1694133538.5760007,0.0024004296874999996,0.0033490624999999996,1.006582265625,-0.05915962890625004,1.35651337890625,-1.127974375,-26.829571687345485,-7.246486616144122,-46.066102473215096
1694133538.596001,0.0022783593749999996,0.0031049218749999996,1.007070546875,-0.013383261718750039,-1.214592578125,-0.8990925390625,-26.42634510580252,-6.322875078546465,-45.13948296589087
1694133538.6161242,0.0025224999999999996,0.0032269921874999996,1.007070546875,-0.30330025390625004,-0.52031767578125,0.062211171875000026,-26.554187436857205,-6.678199133722247,-46.363772997629155
1694133538.6360676,0.0024614648437499996,0.0037763085937499996,1.0069484765625,-0.11256539062500004,0.31891572265625,0.17665208984375003,-27.73010138863943,-7.745298753351153,-45.91435795807838
1694133538.6560168,0.0020342187499999996,0.0035932031249999996,1.00700951171875,-0.13545357421875004,-0.35247099609375,-0.13615308593749997,-26.56687392049978,-6.343219628351154,-46.40139658136939
1694133538.6760197,0.0023393945312499996,0.0032880273437499996,1.007070546875,0.25364554687499996,0.27313935546875,1.62623705078125,-28.03803352340506,-7.614782946222247,-46.576380141550054
1694133538.696087,0.0024004296874999996,0.0034711328124999996,1.0067043359375,-0.40248238281250004,-0.90178740234375,-0.914351328125,-26.358065322477323,-6.454409236261309,-44.12389171589088
1694133538.7160213,0.0024614648437499996,0.0032880273437499996,1.00713158203125,0.27653373046874996,-0.01677763671874999,-0.670210703125,-26.159714322843534,-6.373020520929278,-46.48841981476782
1694133538.7360318,0.0020952539062499996,0.0034711328124999996,1.00578880859375,-0.25752388671875004,0.22736298828125,0.34449876953125,-27.266749531705837,-7.588269055108966,-46.2498916742649
1694133538.7560291,0.0017290429687499996,0.0037152734374999996,1.00652123046875,-0.10493599609375004,-0.06255400390624999,0.51997484375,-26.01762853622244,-6.911525794366778,-45.431556515207284
1694133538.7760322,0.0016680078124999996,0.0037152734374999996,1.00603294921875,-0.15834175781250004,0.128180859375,-2.074019296875,-27.176934089933376,-7.770669537530841,-45.449820264719
1694133538.796046,0.0019731835937499996,0.0035932031249999996,1.0064601953125,0.13157523437499996,-0.451653125,1.7559367578125,-26.0159293854656,-6.370279764581621,-46.16618846174048
1694133538.8161364,0.0025835351562499996,0.0031659570312499996,1.0059719140625,0.08579886718749996,-0.81023466796875,0.07746996093750003,-26.06993842733572,-6.8144078422183405,-45.963808179513926
1694133538.836044,0.0030718164062499996,0.0031049218749999996,1.006093984375,0.10868705078124996,0.128180859375,0.10798753906250003,-26.341100636808378,-7.2086012714175585,-45.948939767404546
1694133538.8560662,0.0022783593749999996,0.0037763085937499996,1.00627708984375,-0.37959419921875004,-0.39824736328125,-0.014082773437499974,-26.240186283536893,-6.50746007268709,-46.322678640695564
1694133538.8760686,0.0021562890624999996,0.0038983789062499996,1.006582265625,-0.50166451171875,-1.90886748046875,0.19954027343750003,-27.747602379117946,-7.365239999444903,-46.65360623652076
1694133538.8960567,0.0024614648437499996,0.0032880273437499996,1.0062160546875,0.10868705078124996,-0.451653125,0.37501634765625,-26.546774693082792,-6.567488437921465,-47.40075813801001
1694133538.9160602,0.0019731835937499996,0.0033490624999999996,1.00578880859375,0.13157523437499996,-0.08544218749999999,0.22242845703125003,-26.254227890714624,-7.616694254327717,-45.87310105024146
1694133538.9360697,0.0019121484374999996,0.0035321679687499996,1.00517845703125,-0.722916953125,-1.06963408203125,-0.06748853515624997,-26.272182288297632,-6.47154221282381,-45.79692759064674
1694133538.9560657,0.0024004296874999996,0.0027997460937499996,1.005605703125,-0.03627144531250004,-1.26799833984375,0.10798753906250003,-26.502360631681423,-6.418269414483966,-47.3839391060276
1694133538.9761622,0.0022173242187499996,0.0030438867187499996,1.0054836328125,0.23075736328124996,-0.85601103515625,-0.20481763671874997,-28.41890156905935,-7.803720701105059,-45.49326307880591
1694133538.9960763,0.0024614648437499996,0.0032880273437499996,1.00542259765625,-0.40248238281250004,-0.47454130859375,0.5657512109375,-26.489142629117946,-6.558872684503497,-46.74690168500709
1694133539.0160809,0.0024004296874999996,0.0032269921874999996,1.00530052734375,0.03239310546874996,-0.56609404296875,-0.31162916015625,-26.658853318449,-7.571729747491779,-45.58027044599342
1694133539.03609,0.0016680078124999996,0.0037763085937499996,1.0059719140625,0.009504921874999961,-0.87889921875,0.855668203125,-26.535458848356228,-6.6834417850894345,-45.709641506540294
1694133539.056086,0.0024614648437499996,0.0036542382812499996,1.00584984375,-0.28041207031250004,-0.421135546875,0.51234544921875,-26.119776135465603,-6.473302027765216,-45.89878871747779
1694133539.076086,0.0030107812499999996,0.0033490624999999996,1.0057277734375,0.03239310546874996,-1.0467458984375,-0.670210703125,-27.423492872037865,-7.636738863702717,-46.398203935373296
1694133539.0961332,0.0024614648437499996,0.00402044921875,1.00505638671875,-0.5703290625,-0.52031767578125,-1.5094441015625,-26.50562018734549,-6.675269433038654,-46.65022136469458
1694133539.1161177,0.0023393945312499996,0.0038983789062499996,1.00554466796875,-0.11256539062500004,0.006110546875000011,-0.93723951171875,-27.77192941415213,-7.053326443780841,-46.47240903351783
1694133539.136169,0.0024004296874999996,0.0038373437499999996,1.00591087890625,-0.25752388671875004,-0.4974294921875,-1.2500446875,-26.59023748946951,-6.555707883233966,-46.63319977607154
1694133539.1561136,0.0024614648437499996,0.0034711328124999996,1.00578880859375,-0.03627144531250004,-1.14592802734375,-0.37266431640625,-26.533592803800563,-6.692474734796466,-46.83321597016334
1694133539.1761672,0.0024614648437499996,0.0032880273437499996,1.00578880859375,0.06291068359374996,-0.665276171875,-0.9601276953125,-27.85521531075857,-7.691349946222248,-45.84894557013892
1694133539.1961293,0.0024004296874999996,0.0036542382812499996,1.0054836328125,-0.08967720703125004,-0.10833037109374999,0.87855638671875,-25.95189886971853,-6.367853934503495,-46.16575406232642
1694133539.2161465,0.0019121484374999996,0.0037152734374999996,1.00517845703125,-0.23463570312500004,-0.59661162109375,0.69545091796875,-27.2595882279949,-7.463086313409746,-46.01442561530494
1694133539.236209,0.0024614648437499996,0.0034100976562499996,1.00566673828125,-0.15834175781250004,-0.90178740234375,-0.94486890625,-26.350111192350365,-6.298381082452716,-46.65384275544166
1694133539.2561276,0.0018511132812499996,0.0027997460937499996,1.006093984375,-0.05915962890625004,-0.421135546875,0.19954027343750003,-26.366367657194115,-6.675371703058184,-46.79814242170143
1694133539.2761207,0.0024004296874999996,0.0031659570312499996,1.00530052734375,-0.23463570312500004,-0.35247099609375,0.37501634765625,-26.69124080270193,-7.62576398235506,-44.71800071491432
1694133539.2961357,0.0015459374999999996,0.0029828515624999996,1.0053615625,-0.40248238281250004,-1.52739775390625,0.64204515625,-26.706416456266385,-7.029127996515216,-46.12040012604712
1694133539.31615,0.0025835351562499996,0.0033490624999999996,1.00615501953125,0.06291068359374996,-0.03966582031249999,-0.87620435546875,-27.265799306730255,-7.611994766046465,-44.68903755512427
1694133539.3361585,0.0022783593749999996,0.0038373437499999996,1.00566673828125,0.20786917968749996,0.27313935546875,1.06929125,-26.324007013395292,-6.362021353937092,-46.32971493268775
1694133539.3561509,0.0026445703124999996,0.0028607812499999996,1.00487328125,0.08579886718749996,-0.07018339843749999,-1.2653034765625,-26.301904822111112,-7.045074839776936,-45.187288258981695
1694133539.3761976,0.0027056054687499996,0.0034100976562499996,1.00566673828125,0.13157523437499996,-0.87889921875,0.4741984765625,-26.52743211947439,-6.211998498468342,-45.4777680414524
1694133539.3961473,0.0023393945312499996,0.0032269921874999996,1.00603294921875,-0.03627144531250004,-0.3753591796875,-0.95249830078125,-26.57154838790701,-6.193716239190997,-46.16708875776099
1694133539.4161751,0.0020342187499999996,0.0030438867187499996,1.005117421875,-0.11256539062500004,0.006110546875000011,-1.56284986328125,-27.85285042757986,-7.215785875421464,-46.23663692853736
1694133539.4361582,0.0017900781249999996,0.0031659570312499996,1.00603294921875,0.18498099609374996,-1.1688162109375,-0.08274732421874997,-26.57446515060232,-6.006394880304279,-47.26484115729713
1694133539.4561741,0.0022783593749999996,0.0033490624999999996,1.00615501953125,0.23075736328124996,-0.75682890625,-0.73887525390625,-27.160010852628687,-7.274635586847247,-45.73505673554419
1694133539.476248,0.0028887109374999996,0.00426458984375,1.0062160546875,-0.15834175781250004,-0.451653125,0.5657512109375,-26.42785241049002,-6.559890383233967,-44.30339721686744
1694133539.4961681,0.0020952539062499996,0.0034100976562499996,1.006582265625,0.10868705078124996,-0.90178740234375,0.34449876953125,-26.455879480070095,-5.960987602960528,-47.08230974811744
1694133539.5161676,0.0020952539062499996,0.0031659570312499996,1.00554466796875,-0.47877632812500004,-0.27617705078125,0.34449876953125,-27.550496691617948,-7.617320388116779,-46.388650827096924
1694133539.5361748,0.0017900781249999996,0.0033490624999999996,1.00603294921875,0.18498099609374996,-0.81023466796875,1.099808828125,-26.251659881803494,-6.4545838676089655,-46.405361069528574
1694133539.5561757,0.0026445703124999996,0.0026776757812499996,1.005605703125,0.10868705078124996,-0.93230498046875,-0.303999765625,-27.331199793546656,-7.557318227960529,-46.43528963031959
1694133539.5761824,0.0025224999999999996,0.0034100976562499996,1.00615501953125,0.45200980468749996,-1.5502859375,-0.5023640234375,-26.41930238155935,-6.348431719171465,-45.64295692829322
1694133539.5961864,0.0018511132812499996,0.0035932031249999996,1.00676537109375,0.08579886718749996,-0.3295828125,-0.98301587890625,-25.776372800626735,-6.6611628041324025,-45.30278708112525
1694133539.61621,0.0021562890624999996,0.0035321679687499996,1.006093984375,-0.13545357421875004,-0.56609404296875,-0.08274732421874997,-25.972041135709745,-7.303396910089434,-45.735256102609625
1694133539.636211,0.0025224999999999996,0.0036542382812499996,1.00591087890625,0.26127494140624996,-0.93230498046875,1.1455851953125,-26.50102916683767,-6.549633332452716,-46.69005792975807
1694133539.656202,0.0024614648437499996,0.0032880273437499996,1.00591087890625,-0.25752388671875004,-0.87889921875,-0.426070078125,-27.11958541915701,-6.993063608819904,-46.69891476642798
1694133539.6762056,0.0024004296874999996,0.0032269921874999996,1.00530052734375,0.28416312499999996,-0.23040068359375,0.92433275390625,-26.063810795499784,-6.390359899835529,-47.09472498114967
1694133539.6962848,0.0019121484374999996,0.0034100976562499996,1.0062160546875,0.20786917968749996,-1.092522265625,-0.11326490234374997,-26.260625302457793,-7.425779041925372,-45.99615572187232
1694133539.7162857,0.0022173242187499996,0.0031049218749999996,1.00542259765625,0.20786917968749996,-0.909416796875,-0.10563550781249997,-26.251413954801542,-7.113110303644122,-46.330823339548104
1694133539.736291,0.0026445703124999996,0.0038373437499999996,1.00578880859375,0.42912162109374996,-0.7415701171875,-1.219527109375,-26.511865299283958,-6.439110334405841,-46.9472820081272
1694133539.7562652,0.0027666406249999996,0.0029828515624999996,1.0057277734375,0.30705130859374996,-1.12303984375,-0.70835767578125,-27.893436320402127,-7.37074146331209,-47.18218063813209
1694133539.7763014,0.0024614648437499996,0.0038373437499999996,1.00652123046875,-0.08967720703125004,-1.0467458984375,-0.35740552734375,-26.31781506100271,-6.703140270929277,-46.95709354499244
1694133539.796223,0.0024614648437499996,0.0037763085937499996,1.00627708984375,-0.03627144531250004,-0.8331228515625,-0.35740552734375,-26.557989791105253,-7.511890978448809,-45.98344663019751
1694133539.8162222,0.0024614648437499996,0.0032880273437499996,1.00542259765625,0.20786917968749996,-0.2075125,-0.11326490234374997,-26.430012147184353,-6.6056786942691215,-45.7006672713108
1694133539.836224,0.0020952539062499996,0.0029828515624999996,1.00469017578125,-0.37959419921875004,0.7537912109375,-0.059859140624999974,-26.30726544186209,-6.598848960870685,-46.27339024567603
1694133539.8562236,0.0019731835937499996,0.0038983789062499996,1.0052394921875,0.009504921874999961,-1.214592578125,1.6796428125,-27.52708916268728,-7.312737327569904,-46.53933936371802
1694133539.8762486,0.0019731835937499996,0.0037763085937499996,1.00530052734375,-0.21174751953125004,0.2960275390625,1.61860765625,-26.55311557162283,-6.623230729425372,-46.480848334299075
1694133539.8962352,0.0019121484374999996,0.0029218164062499996,1.00505638671875,0.20786917968749996,-0.299065234375,0.9929973046875,-27.62785115682791,-7.34241350579256,-46.25216716071509
1694133539.9162407,0.0022783593749999996,0.0038983789062499996,1.00505638671875,-0.08204781250000004,-0.9551931640625,0.46656908203125,-26.39188274398611,-6.479287411065997,-46.25636865705298
1694133539.9363272,0.0026445703124999996,0.0035932031249999996,1.00505638671875,0.13157523437499996,1.043708203125,-0.7617634375,-26.82161951864431,-6.207466771905841,-46.86822145929908
1694133539.956246,0.0027666406249999996,0.0031659570312499996,1.00566673828125,0.13157523437499996,-0.1312185546875,0.84803880859375,-27.72591650094412,-7.740313016046466,-45.49017859833716
1694133539.9762468,0.0018511132812499996,0.0032269921874999996,1.005117421875,0.27653373046874996,-0.2075125,0.5352336328125,-25.930280745084744,-6.252363903741779,-45.711829134592044
1694133539.9962502,0.0027666406249999996,0.0029828515624999996,1.005117421875,-0.28041207031250004,-0.01677763671874999,-0.426070078125,-27.83760929476736,-7.140421163019121,-44.93229745026588
1694133540.0162673,0.0019121484374999996,0.0033490624999999996,1.00505638671875,0.03239310546874996,-0.23040068359375,0.6878215234375,-26.33149879037283,-6.364484593194904,-45.7562100393772
1694133540.0362575,0.0024004296874999996,0.00426458984375,1.0045070703125,0.23075736328124996,0.65460908203125,-0.06748853515624997,-26.413772728605252,-6.349264865167559,-46.41131160761451
1694133540.0563056,0.0018511132812499996,0.0034100976562499996,1.00493431640625,-0.23463570312500004,-1.12303984375,0.4589396875,-26.490432273405055,-7.331085673273028,-46.357760443674074
1694133540.0762603,0.0020342187499999996,0.0032880273437499996,1.00517845703125,-0.31092964843750004,-1.19170439453125,-0.47947583984375,-26.10476088192556,-6.317100489190997,-46.31835174530982
1694133540.0962992,0.0019731835937499996,0.0028607812499999996,1.00530052734375,-0.03627144531250004,0.10529267578125001,-0.5023640234375,-27.307192992155056,-7.548921979425371,-45.27706161921119
1694133540.1162777,0.0023393945312499996,0.0032269921874999996,1.00517845703125,0.15446341796874996,-0.87889921875,0.27583421875,-26.131170700529083,-6.52867327923006,-45.51799089924049
1694133540.136304,0.0025224999999999996,0.0028607812499999996,1.004629140625,0.13920462890624996,-1.43584501953125,-1.8451374609375,-26.259054598600372,-6.886213617120685,-45.37734795331764
1694133540.1562772,0.0020952539062499996,0.0027387109374999996,1.0045070703125,0.06291068359374996,0.22736298828125,0.27583421875,-26.138050944669708,-6.886503584894121,-44.745507948312756
1694133540.176282,0.0019731835937499996,0.0032880273437499996,1.0053615625,-0.32618843750000004,-0.451653125,-0.70835767578125,-26.026764537199004,-6.701252611749591,-47.28732856684302
1694133540.196339,0.0016069726562499996,0.0038373437499999996,1.00469017578125,0.06291068359374996,-0.8331228515625,2.02296556640625,-27.1649664389324,-7.51870576799959,-46.596137223337166
1694133540.216297,0.0019731835937499996,0.0032880273437499996,1.00487328125,0.28416312499999996,0.36469208984375,0.39790453125,-26.40799132272146,-6.644142112237871,-45.916722789499275
1694133540.2363007,0.0018511132812499996,0.0026776757812499996,1.00493431640625,-0.08204781250000004,-0.85601103515625,-1.341597421875,-26.666548102506617,-7.008297034112873,-44.68731828876685
1694133540.2562945,0.0024614648437499996,0.0035321679687499996,1.00456810546875,0.009504921874999961,-0.665276171875,-0.99827466796875,-26.11108606710623,-6.157419223077716,-46.30241591059303
1694133540.27629,0.0027056054687499996,0.0033490624999999996,1.00493431640625,0.16209281249999996,-0.3753591796875,0.23005785156250003,-26.177097773893337,-6.02694767376131,-45.71225134662818
1694133540.2963064,0.0024004296874999996,0.0032269921874999996,1.005117421875,0.45200980468749996,0.36469208984375,0.008805410156250026,-27.875522331144314,-7.080942229913653,-46.49501924225806
1694133540.3163087,0.0027666406249999996,0.0037763085937499996,1.00481224609375,0.06291068359374996,-0.3295828125,0.3521281640625,-26.434141795255645,-6.136254035089435,-46.75336082575416
1694133540.336307,0.0020952539062499996,0.0036542382812499996,1.00493431640625,0.20786917968749996,-1.214592578125,-1.22715650390625,-27.41967690450857,-6.957074039483965,-46.12955082135962
1694133540.3563077,0.0015459374999999996,0.0035321679687499996,1.005117421875,-0.03627144531250004,0.48676240234375,0.58863939453125,-26.382740249235137,-6.48700204876131,-46.61150156147193
1694133540.376373,0.0019121484374999996,0.0034100976562499996,1.00554466796875,0.06291068359374996,-0.75682890625,0.428422109375,-26.065969179288846,-6.5309949769839655,-46.733077064035406
1694133540.3963156,0.0029497460937499996,0.0035932031249999996,1.0049953515625,0.06291068359374996,-0.787346484375,1.16847337890625,-26.596035688077908,-7.287200617120686,-45.534777201486584
1694133540.416318,0.0020952539062499996,0.0033490624999999996,1.00493431640625,0.16209281249999996,-0.665276171875,-0.49473462890625,-25.97854682797049,-6.439409643976152,-45.9793572322483
1694133540.4363258,0.0027056054687499996,0.0034711328124999996,1.00542259765625,0.18498099609374996,0.58594453125,-0.029341562499999974,-27.446726581876735,-7.316172145440996,-46.137089572092044
1694133540.4563482,0.0018511132812499996,0.0028607812499999996,1.00578880859375,0.13157523437499996,0.15106904296875,-0.639693125,-26.012942789152127,-6.678713592706622,-45.91188680219459
1694133540.4763978,0.0021562890624999996,0.0029828515624999996,1.00487328125,0.04002249999999996,-0.39824736328125,-0.88383375,-26.089945321134547,-6.572841454523028,-46.38738159113502
1694133540.4963572,0.0014849023437499996,0.0032269921874999996,1.00530052734375,0.32993949218749996,0.10529267578125001,0.37501634765625,-25.91412495138357,-7.599473987726153,-46.49032011689185
1694133540.5163462,0.0020342187499999996,0.0033490624999999996,1.00554466796875,0.16209281249999996,0.31891572265625,0.611527578125,-25.993926647306424,-6.714045263116779,-46.46071125727271
1694133540.5363462,0.0017900781249999996,0.0034100976562499996,1.00615501953125,0.62748587890625,-0.56609404296875,0.19954027343750003,-26.897783717130643,-7.6055155057925585,-46.372191012765875
1694133540.5563471,0.0026445703124999996,0.0030438867187499996,1.0059719140625,0.40623343749999996,1.043708203125,-0.90672193359375,-26.03222981027029,-6.839365190851154,-45.92799639667701
1694133540.5764287,0.0025835351562499996,0.0033490624999999996,1.00603294921875,0.08579886718749996,0.2044748046875,-0.69309888671875,-26.22769170528982,-7.7728914374331834,-46.47394816095923
1694133540.5963871,0.0024614648437499996,0.0029828515624999996,1.006582265625,0.06291068359374996,-0.451653125,-0.18192945312499997,-26.101149080167747,-6.5087072699527155,-45.12865324518775
1694133540.6163957,0.0019731835937499996,0.0031049218749999996,1.00591087890625,0.10868705078124996,-1.458733203125,0.54286302734375,-26.348123194669704,-6.508291972101151,-46.91995197809791
1694133540.6364222,0.0020952539062499996,0.0033490624999999996,1.00591087890625,-0.50166451171875,0.82245576171875,0.49708666015625,-27.072014434659938,-7.427953580987872,-46.61077207087134
1694133540.6563709,0.0030107812499999996,0.0036542382812499996,1.00603294921875,0.28416312499999996,-0.09307158203124999,0.86329759765625,-25.815393815519315,-6.641035302179278,-46.81792878962134
1694133540.676371,0.0028276757812499996,0.0031659570312499996,1.006582265625,0.50541556640625,-1.00096953125,-0.69309888671875,-27.224211754484156,-7.627607383722248,-45.63995244050025
1694133540.6963902,0.0019731835937499996,0.0028607812499999996,1.006338125,0.20786917968749996,1.06659638671875,1.70253099609375,-26.178625557828884,-6.659143581964434,-45.937074121286386
1694133540.7163863,0.0017900781249999996,0.0037763085937499996,1.0067043359375,0.10868705078124996,0.46387421875,0.489457265625,-25.56947930587576,-6.755599258722247,-46.01949321015357
1694133540.7364874,0.0027056054687499996,0.0032880273437499996,1.00700951171875,0.23075736328124996,-1.214592578125,1.38209642578125,-27.221801617765404,-7.781016407648028,-44.73865686017798
1694133540.756472,0.0025224999999999996,0.0034711328124999996,1.00615501953125,-0.32618843750000004,-0.9551931640625,0.88618578125,-26.03845585519216,-6.739399856866779,-47.01050578949927
1694133540.7764611,0.0019731835937499996,0.0038373437499999996,1.00627708984375,-0.28041207031250004,0.7537912109375,-0.853316171875,-26.958389804166774,-7.644449740655842,-45.85489291864966
1694133540.7963994,0.0027056054687499996,0.0029828515624999996,1.0054836328125,0.08579886718749996,-0.4974294921875,-0.33451734375,-26.29100560336111,-6.573475662530841,-46.01056535981177
1694133540.8163927,0.0018511132812499996,0.0030438867187499996,1.00627708984375,0.08579886718749996,-0.9551931640625,-0.23533521484374997,-26.205454082487087,-6.652614425714434,-46.098153557077396
1694133540.836408,0.0025224999999999996,0.0034100976562499996,1.007070546875,0.05528128906249996,1.165778515625,-0.33451734375,-26.84867029537771,-7.3775113012027145,-46.18672278632545
1694133540.8564146,0.0019731835937499996,0.00402044921875,1.0064601953125,0.18498099609374996,0.05951630859375001,0.10035814453125003,-25.951314563444118,-6.415166959894121,-47.264734967599864
1694133540.876404,0.0016680078124999996,0.0031049218749999996,1.0067043359375,0.08579886718749996,-0.39824736328125,0.52760423828125,-27.3486047045574,-7.1649301390933395,-45.85611365912818
1694133540.8964198,0.0020342187499999996,0.0035932031249999996,1.0064601953125,0.23075736328124996,1.11237275390625,-0.28111158203125,-25.397093426481224,-6.064650286065998,-46.90830058674049
1694133540.9164667,0.0024614648437499996,0.0032880273437499996,1.006582265625,-0.11256539062500004,0.58594453125,0.26820482421875,-25.645779992155056,-6.73102605266756,-46.07855215778541
1694133540.9364243,0.0027056054687499996,0.0031659570312499996,1.00627708984375,-0.23463570312500004,-1.10015166015625,0.49708666015625,-26.301740261930448,-7.059011207940996,-46.471232720895756
1694133540.9564426,0.0028887109374999996,0.0029828515624999996,1.00737572265625,0.16209281249999996,-1.52739775390625,0.10798753906250003,-26.46424452889822,-6.417423165948809,-46.05322527643775
1694133540.9764235,0.0028276757812499996,0.0038983789062499996,1.0073146875,-0.11256539062500004,0.46387421875,-0.69309888671875,-27.856210476407984,-7.318223195733966,-46.163391931222904
1694133540.9964402,0.0020952539062499996,0.0031049218749999996,1.00664330078125,0.13157523437499996,-0.30669462890625,0.8098918359375,-26.48954091525076,-6.571811268976154,-46.734872744699466
1694133541.0168126,0.0030107812499999996,0.0033490624999999996,1.0067043359375,-0.18122994140625004,1.1352609375,-1.41026197265625,-26.78431028707693,-7.056309128351152,-46.13134331244849
1694133541.0365093,0.0024614648437499996,0.0033490624999999996,1.00700951171875,0.16209281249999996,1.501471875,1.8169719140625,-26.465910940031034,-6.622668846612871,-45.36762329633521
1694133541.056478,0.0028276757812499996,0.0032269921874999996,1.006582265625,0.009504921874999961,0.921637890625,2.259476796875,-26.180363155485132,-6.648430027276934,-46.16693937275123
1694133541.0764444,0.0024004296874999996,0.0035932031249999996,1.0064601953125,0.35282767578124996,-0.451653125,0.27583421875,-27.2680922168865,-7.2129995936831826,-46.610311085641854
1694133541.0964587,0.0025835351562499996,0.0029218164062499996,1.00664330078125,0.35282767578124996,-0.75682890625,0.008805410156250026,-25.626744723966578,-6.2763303534488095,-47.32538606073951
1694133541.116496,0.0022783593749999996,0.0032880273437499996,1.00682640625,-0.23463570312500004,0.89874970703125,0.29872240234375,-27.08749676791189,-7.291255945733965,-46.112206087961184
1694133541.1365147,0.0026445703124999996,0.0033490624999999996,1.00700951171875,0.32993949218749996,-0.08544218749999999,0.42079271484375,-26.054951753263456,-6.255305496515216,-49.44024814179419
1694133541.156491,0.0019731835937499996,0.0035321679687499996,1.0074367578125,0.27653373046874996,-1.11541044921875,0.51997484375,-26.04126084506033,-6.324325605401935,-47.693807908395755
1694133541.1764827,0.0017900781249999996,0.0037152734374999996,1.0064601953125,0.009504921874999961,0.31891572265625,0.8709269921875,-27.350082702604276,-7.340548906671465,-45.27502239765357
1694133541.196469,0.0018511132812499996,0.0038373437499999996,1.00676537109375,0.10868705078124996,-0.1312185546875,1.74830736328125,-26.211873994230253,-6.600109260675373,-45.641724000436774
1694133541.2164886,0.0016069726562499996,0.0035321679687499996,1.007070546875,0.20786917968749996,-1.19170439453125,1.3592082421875,-27.34185296664236,-7.435001572687089,-45.3625961964817
1694133541.2364943,0.0024004296874999996,0.0032269921874999996,1.00682640625,0.38334525390624996,0.799567578125,1.8474894921875,-25.709692968473412,-6.7674377894839655,-44.56356981061744
1694133541.2564955,0.0022173242187499996,0.0034100976562499996,1.00713158203125,-0.05915962890625004,0.799567578125,0.61915697265625,-25.74348310409353,-6.474148871026934,-45.31064848737525
1694133541.2764993,0.0018511132812499996,0.0035321679687499996,1.00676537109375,0.20786917968749996,0.1739572265625,3.03004564453125,-26.451787044645293,-7.225741712335527,-45.41007402314185
1694133541.2964807,0.0022783593749999996,0.0026776757812499996,1.0073146875,-0.03627144531250004,0.34180390625,0.92433275390625,-26.03010306674002,-6.223784039483965,-46.92965177106666
1694133541.3165038,0.0022783593749999996,0.0033490624999999996,1.0069484765625,0.26127494140624996,-0.47454130859375,-1.45603833984375,-27.339802922697046,-7.247515576105058,-45.93272987311744
1694133541.3365746,0.0020342187499999996,0.0035932031249999996,1.0064601953125,-0.013383261718750039,0.70801484375,-1.10508619140625,-26.39920652779959,-6.221083206476154,-46.76084370453834
1694133541.3565013,0.0026445703124999996,0.0032269921874999996,1.00713158203125,-0.13545357421875004,-0.665276171875,-1.036421640625,-26.143208557340603,-7.006173658624592,-46.151057198923105
1694133541.3764913,0.0020342187499999996,0.0029828515624999996,1.00652123046875,0.08579886718749996,0.85297333984375,-2.3639362890625,-26.011603536954862,-7.328586866144121,-45.757431911935804
1694133541.3965,0.0025224999999999996,0.0029218164062499996,1.00700951171875,0.30705130859374996,0.2044748046875,0.855668203125,-25.937034935270294,-6.69839212737459,-47.27522714509009
1694133541.4165003,0.0025224999999999996,0.0027387109374999996,1.00713158203125,0.20786917968749996,-0.3753591796875,-2.46311841796875,-27.214470300138455,-7.651936778253496,-47.221563493967054
1694133541.436504,0.0024614648437499996,0.0028607812499999996,1.00627708984375,0.23075736328124996,-0.94756376953125,-0.33451734375,-26.446311531949977,-6.8900388314761525,-46.23895193146704
1694133541.4565074,0.0027056054687499996,0.0034711328124999996,1.00682640625,0.04002249999999996,1.043708203125,1.70253099609375,-26.647599773527126,-7.1792867914370895,-46.03308475580787
1694133541.4765081,0.0019731835937499996,0.0035932031249999996,1.00664330078125,0.20786917968749996,0.4180978515625,0.6878215234375,-25.999274634489037,-5.980350559503497,-46.033917735788336
1694133541.4965248,0.0020342187499999996,0.0034100976562499996,1.00829125,0.20786917968749996,-0.10833037109374999,-1.10508619140625,-26.37478580624197,-6.610545950128497,-46.60605790424537
1694133541.5165205,0.0019121484374999996,0.0031659570312499996,1.00676537109375,-0.23463570312500004,0.1739572265625,-0.2582233984375,-27.639553754484158,-7.76287634173006,-45.729321919992444
1694133541.536529,0.0023393945312499996,0.0034711328124999996,1.00664330078125,0.18498099609374996,0.08240449218750001,1.12269701171875,-26.311614889738063,-6.5898983300113105,-45.413625143503175
1694133541.5565236,0.0025224999999999996,0.0032880273437499996,1.00725365234375,0.06291068359374996,-0.56609404296875,-0.26585279296875,-27.31273184469412,-7.56095384612459,-45.81563792695045
1694133541.5765376,0.0025224999999999996,0.0032269921874999996,1.007558828125,-0.05915962890625004,0.80719697265625,-0.64732251953125,-25.97091059786795,-6.499414297296466,-46.27488111286353
1694133541.59664,0.0023393945312499996,0.0032880273437499996,1.0076808984375,-0.50166451171875,0.92926728515625,0.19954027343750003,-25.893436513151148,-6.438856508233966,-46.44890148310279
1694133541.616541,0.0015459374999999996,0.0035321679687499996,1.0071926171875,0.13920462890624996,0.60883271484375,0.733597890625,-26.713358687345487,-7.158134054132404,-44.95645341962623
1694133541.6365414,0.0014238671874999996,0.0033490624999999996,1.00725365234375,0.18498099609374996,-1.214592578125,0.10035814453125003,-25.726921058927516,-6.4481663231753705,-46.3782767914524
1694133541.6565444,0.0024004296874999996,0.0034711328124999996,1.0073146875,-0.13545357421875004,1.02082001953125,-0.94486890625,-27.284491781949978,-7.6223690878238095,-45.273673793039315
1694133541.6765482,0.0015459374999999996,0.0038373437499999996,1.007070546875,-0.13545357421875004,0.372321484375,0.18428148437500003,-26.276750808805446,-6.458768266046465,-46.33657525385474
1694133541.6965582,0.0025835351562499996,0.0032269921874999996,1.007070546875,0.20786917968749996,-0.64238798828125,-0.059859140624999974,-26.200312476041773,-6.468795854425371,-46.324025034250255
1694133541.7166345,0.0023393945312499996,0.0035932031249999996,1.00676537109375,0.23075736328124996,1.1200021484375,-0.76939283203125,-25.98489904549978,-7.503688660577716,-44.90086426667212
1694133541.7365668,0.0024004296874999996,0.0032880273437499996,1.0074367578125,-0.06678902343750004,1.64643037109375,0.60389818359375,-26.31990900558279,-6.356499938898028,-45.91702883551979
1694133541.7566485,0.0018511132812499996,0.0032269921874999996,1.00810814453125,0.47489798828124996,-0.2075125,-1.05930982421875,-27.763222358854275,-7.243087981866777,-46.10853152558326
1694133541.7766063,0.0021562890624999996,0.0031049218749999996,1.0067043359375,0.27653373046874996,-0.7110525390625,1.30580248046875,-26.15930138339041,-6.329383667901934,-46.62794599884986
1694133541.7966383,0.0026445703124999996,0.0029218164062499996,1.007070546875,0.01713431640624996,1.15814912109375,0.83278001953125,-26.06946901400564,-7.643649627374591,-45.147809189767834
1694133541.8166118,0.0015459374999999996,0.0032269921874999996,1.007070546875,0.20786917968749996,0.799567578125,-0.16667066406249997,-26.4840754479656,-7.965713013605059,-45.733688821115486
1694133541.836582,0.0025224999999999996,0.0036542382812499996,1.00688744140625,0.23838675781249996,-0.59661162109375,-0.38792310546875,-26.56367745113943,-6.668341785089433,-46.05461314350318
1694133541.8566403,0.0029497460937499996,0.0038373437499999996,1.006582265625,0.17735160156249996,1.043708203125,-0.15141187499999997,-27.581181651456816,-7.481725915460528,-46.14248782294654
1694133541.8766015,0.0016680078124999996,0.0034711328124999996,1.007070546875,0.23075736328124996,0.9979318359375,-0.20481763671874997,-26.305450163907988,-6.622963205987872,-47.33896271869849
1694133541.89659,0.0024004296874999996,0.0034100976562499996,1.007558828125,-0.23463570312500004,-0.52031767578125,-0.32688794921875,-27.036095221891383,-7.642003959405841,-45.97034682367896
1694133541.9166899,0.0018511132812499996,0.0039594140625,1.0069484765625,-0.05915962890625004,0.22736298828125,-1.27293287109375,-26.34367533370779,-7.041255879327716,-45.56629088581275
1694133541.9366045,0.0020342187499999996,0.0029828515624999996,1.00749779296875,0.35282767578124996,0.1586984375,-0.021712167968749974,-25.719632348356225,-6.506028265558185,-46.71977372236061
1694133541.9566326,0.0019121484374999996,0.0037763085937499996,1.00682640625,0.18498099609374996,0.8758615234375,0.83278001953125,-27.034034938322048,-7.256927661065998,-46.010026238473884
1694133541.9766002,0.0028276757812499996,0.0037152734374999996,1.00676537109375,-0.31092964843750004,-0.13884794921875,-0.45658765625,-26.07568028695486,-6.260543756280841,-46.18293722333717
1694133541.9966085,0.0022783593749999996,0.0035932031249999996,1.00682640625,0.25364554687499996,0.39520966796875,1.527054921875,-26.88116949313162,-7.033077294366778,-45.65146403437232
1694133542.0166347,0.0025224999999999996,0.0038983789062499996,1.00688744140625,0.20786917968749996,1.7608712890625,-0.64732251953125,-25.664983507047634,-6.54059600628084,-46.20169370929908
1694133542.0366259,0.0022173242187499996,0.0034711328124999996,1.00682640625,-0.23463570312500004,0.56305634765625,-0.29637037109375,-26.138896203458767,-6.5580114711245905,-46.216401527536384
1694133542.0566368,0.0018511132812499996,0.0037763085937499996,1.00688744140625,-0.03627144531250004,-0.2075125,-0.4413288671875,-27.25213256429861,-7.445006101007403,-46.65742576178931
1694133542.076627,0.0030718164062499996,0.0036542382812499996,1.00664330078125,-0.18122994140625004,-0.26091826171875,1.3286906640625,-25.96010714571951,-6.3197165101870905,-45.881187766550056
1694133542.0967066,0.0022783593749999996,0.0032269921874999996,1.00664330078125,0.10868705078124996,-0.06255400390624999,-1.616255625,-27.440427270353297,-7.2626461366519335,-45.692066398141854
1694133542.1166294,0.0019121484374999996,0.0033490624999999996,1.00688744140625,-0.08967720703125004,-0.87889921875,-0.33451734375,-25.7458809804363,-6.379920101495685,-47.32188255780982
1694133542.1366284,0.0024004296874999996,0.0036542382812499996,1.0067043359375,-0.13545357421875004,1.57013642578125,0.977738515625,-25.728978949552516,-6.743364098565998,-45.35615613031959
1694133542.1566293,0.0027056054687499996,0.0037763085937499996,1.006582265625,-0.13545357421875004,0.6317208984375,-0.23533521484374997,-25.96873528646658,-7.490644697198809,-45.95646363044166
1694133542.176645,0.0022173242187499996,0.0034711328124999996,1.006338125,-0.37959419921875004,0.1739572265625,1.313431875,-25.874596211149196,-6.842567401300371,-45.467759012887946
1694133542.1966405,0.0021562890624999996,0.0032880273437499996,1.0064601953125,0.26127494140624996,1.18866669921875,-2.11216626953125,-27.207657555997827,-7.709336614679277,-46.25559376008033
1694133542.2166457,0.0022783593749999996,0.0038983789062499996,1.006338125,-0.30330025390625004,2.1270822265625,-1.2653034765625,-26.02839820870779,-6.570497943292558,-46.65075655317115
1694133542.2366617,0.0019121484374999996,0.0037763085937499996,1.006582265625,-0.013383261718750039,0.58594453125,0.29872240234375,-26.228644991056424,-7.677120459405841,-45.61793280292701
1694133542.2567253,0.0024614648437499996,0.0034711328124999996,1.00737572265625,-0.32618843750000004,0.44098603515625,-0.09037671874999997,-26.371834266935327,-10.129315242608966,-45.099530033884044
1694133542.27678,0.0024614648437499996,0.0037152734374999996,1.00700951171875,-0.013383261718750039,1.44806611328125,-0.2887409765625,-25.92224622884939,-6.299429972589435,-46.0193819555149
1694133542.296667,0.0024614648437499996,0.0035932031249999996,1.00700951171875,-0.11256539062500004,0.46387421875,0.19954027343750003,-27.01087449508474,-7.730985722101153,-45.633654382883066
1694133542.3166797,0.0020342187499999996,0.0035932031249999996,1.007070546875,-0.18122994140625004,-0.8331228515625,-1.85276685546875,-25.75003079488943,-6.585248101007402,-46.900089939157475
1694133542.3366723,0.0024614648437499996,0.0036542382812499996,1.006338125,0.7266680078125,0.73090302734375,-1.27293287109375,-27.066690908903105,-7.417066641534746,-44.73024931061744
1694133542.3566904,0.0022783593749999996,0.0035932031249999996,1.0062160546875,0.32993949218749996,0.82245576171875,0.66493333984375,-25.688572642423612,-6.9518194901675585,-45.6220047133274
1694133542.3766816,0.0027056054687499996,0.0038983789062499996,1.0071926171875,0.25364554687499996,0.48676240234375,-1.1737507421875,-25.392339925870875,-6.322401131769121,-46.67912816327857
1694133542.3966744,0.0022173242187499996,0.0038373437499999996,1.006582265625,0.47489798828124996,0.83008515625,0.17665208984375003,-27.62771792403982,-7.160975854913655,-45.64072438312721
1694133542.4167044,0.0020952539062499996,0.0033490624999999996,1.005605703125,-0.13545357421875004,2.2186349609375,2.2137004296875,-26.25732276754568,-6.635188372491777,-46.24844916779517
1694133542.4366934,0.0021562890624999996,0.0032880273437499996,1.006093984375,-0.74580513671875,1.44806611328125,-1.10508619140625,-27.52025495858572,-7.416452405694903,-45.376377132883064
1694133542.456699,0.0028887109374999996,0.0032269921874999996,1.00584984375,-0.25752388671875004,0.63935029296875,-1.15086255859375,-26.160314635343532,-6.261558997980059,-47.020859637277596
1694133542.4767072,0.0020952539062499996,0.0029218164062499996,1.006338125,0.55119193359375,0.58594453125,-1.0211628515625,-25.936654676115015,-6.364534489190998,-47.27828406122779
1694133542.4966974,0.0027056054687499996,0.0034100976562499996,1.006338125,-0.42537056640625004,0.94452607421875,0.2605754296875,-27.552112336149197,-7.8074847733706845,-45.76105083759498
1694133542.516941,0.0018511132812499996,0.0033490624999999996,1.00688744140625,-0.13545357421875004,-0.9551931640625,-0.014082773437499974,-26.91067424789236,-6.889365336847247,-45.31389060737037
1694133542.5367918,0.0024004296874999996,0.0027387109374999996,1.00639916015625,0.16209281249999996,-0.30669462890625,1.90089525390625,-27.312557044889427,-7.377299912530839,-46.56912812702369
1694133542.5567706,0.0015459374999999996,0.0037763085937499996,1.006338125,0.35282767578124996,0.02899873046875001,1.9695598046875,-26.504544948453884,-6.971918351007402,-46.648771481760015
1694133542.5767648,0.0027056054687499996,0.0035932031249999996,1.00676537109375,-0.10493599609375004,-0.23040068359375,0.86329759765625,-26.68013851754568,-7.093839623468341,-45.773285778146736
1694133542.5967672,0.0022783593749999996,0.0032269921874999996,1.0064601953125,-0.28041207031250004,0.22736298828125,-0.639693125,-26.78259077572439,-7.372324763605059,-45.9799453383274
1694133542.61678,0.0018511132812499996,0.0029218164062499996,1.00652123046875,0.16209281249999996,0.15106904296875,-0.22007642578124997,-26.3040972391033,-6.8006423656558415,-46.44808904548072
1694133542.6367908,0.0023393945312499996,0.0029828515624999996,1.006093984375,-0.30330025390625004,-0.06255400390624999,-0.89146314453125,-26.521805524991972,-7.894440423273027,-45.966493100900635
1694133542.6567705,0.0025224999999999996,0.0027997460937499996,1.0059719140625,-0.35670601562500004,-1.1688162109375,-0.70835767578125,-26.663703879240018,-6.884812391534746,-46.26395109235572
1694133542.6767793,0.0027056054687499996,0.0033490624999999996,1.00578880859375,0.10868705078124996,0.99030244140625,0.11561693359375003,-26.667173367277126,-7.7513452157534966,-45.7101544308567
1694133542.6967795,0.0019731835937499996,0.0035321679687499996,1.006338125,0.25364554687499996,1.837165234375,0.611527578125,-26.492927937101346,-7.2719877377261515,-45.511631315011975
1694133542.716786,0.0019731835937499996,0.0035321679687499996,1.00639916015625,0.06291068359374996,0.58594453125,0.08509935546875003,-26.86373178317068,-6.463243899835529,-46.19223067048072
1694133542.736792,0.0030718164062499996,0.0031659570312499996,1.00615501953125,0.42912162109374996,0.31891572265625,0.87855638671875,-27.11665062948416,-7.50130402141756,-45.61013439106177
1694133542.756804,0.0024004296874999996,0.0029218164062499996,1.0057277734375,-0.10493599609375004,1.44806611328125,0.4436808984375,-26.507629704313256,-7.04526443596834,-46.66854394050025
1694133542.7768073,0.0029497460937499996,0.0032880273437499996,1.00639916015625,-0.08967720703125004,0.94452607421875,-0.32688794921875,-26.625669261930447,-7.491818343683185,-46.46659805768775
1694133542.7968075,0.0024614648437499996,0.0034711328124999996,1.006582265625,-0.23463570312500004,0.27313935546875,-0.6854694921875,-26.410446459440212,-6.767553183038653,-45.65904991327857
1694133542.8168147,0.0022173242187499996,0.0036542382812499996,1.00676537109375,0.20786917968749996,0.799567578125,0.63441576171875,-26.0865559656658,-6.409007597101153,-46.71562107599829
1694133542.836811,0.0021562890624999996,0.0039594140625,1.00688744140625,-0.15834175781250004,0.677497265625,0.25294603515625,-27.248219595914822,-7.820728921319903,-46.02170372638892
1694133542.8568358,0.0025224999999999996,0.0036542382812499996,1.0064601953125,-0.20411812500000004,0.03662812500000001,-1.10508619140625,-25.9957657781658,-6.733494299249589,-46.57457252753638
1694133542.8768184,0.0027666406249999996,0.0033490624999999996,1.0067043359375,0.009504921874999961,0.1739572265625,-2.02061353515625,-27.207325729825953,-7.926902883233966,-45.305646740793215
1694133542.8968189,0.0025224999999999996,0.0038373437499999996,1.00566673828125,-0.22700630859375004,0.89874970703125,0.2605754296875,-26.44463254757498,-7.023545460382402,-45.49909770490455
1694133542.916822,0.0030107812499999996,0.0037152734374999996,1.00664330078125,-0.600846640625,1.32599580078125,-0.4413288671875,-26.089743294767363,-6.697241561944905,-45.84291282831764
1694133542.9368262,0.0022783593749999996,0.0031049218749999996,1.006338125,0.13157523437499996,-0.87889921875,0.0011760156250000264,-27.323716903287867,-7.847292056573808,-45.78033081391334
1694133542.9568248,0.0019731835937499996,0.0037152734374999996,1.0064601953125,-0.28041207031250004,0.128180859375,-0.3192585546875,-26.04762084994314,-6.870095266534746,-46.07588865680884
1694133542.9768283,0.0024004296874999996,0.0039594140625,1.00652123046875,0.30705130859374996,0.921637890625,-0.014082773437499974,-27.380278082731227,-7.3594435604800585,-45.68734657685279
1694133542.9968333,0.0020952539062499996,0.0032269921874999996,1.00737572265625,-0.35670601562500004,0.60883271484375,0.42079271484375,-26.38066199801443,-7.049065938409746,-46.74759230195044
1694133543.0168545,0.0020952539062499996,0.0035321679687499996,1.00554466796875,0.03239310546874996,0.7537912109375,-1.56284986328125,-26.42675706454275,-6.808007776788653,-45.86387280854224
1694133543.03685,0.0019731835937499996,0.0032269921874999996,1.0067043359375,-0.35670601562500004,2.0965646484375,-1.55522046875,-26.367020935026147,-8.200884322198808,-45.89450540619849
1694133543.0568535,0.0018511132812499996,0.0035321679687499996,1.006338125,-0.30330025390625004,2.4322580078125,-0.41844068359375,-26.34993509896658,-6.83579504924959,-45.73585428547096
1694133543.0768526,0.0020342187499999996,0.0037152734374999996,1.006582265625,0.32993949218749996,-1.48162138671875,-0.46421705078125,-27.89705461593435,-7.381693227472246,-46.16097418219947
1694133543.0968535,0.0022173242187499996,0.0036542382812499996,1.00566673828125,-0.23463570312500004,-0.03966582031249999,0.008805410156250026,-26.508984649869898,-6.610814720148028,-45.9190248617649
1694133543.1168556,0.0022173242187499996,0.0027997460937499996,1.00615501953125,0.06291068359374996,1.11237275390625,-0.006453378906249974,-26.458824374479278,-7.8085729501284975,-46.428467593088136
1694133543.1368577,0.0029497460937499996,0.0033490624999999996,1.006093984375,1.1844316796875,-0.7110525390625,0.90907396484375,-26.474562815031035,-6.584718046319903,-46.4474543004856
1694133543.1568604,0.0022783593749999996,0.0037152734374999996,1.00584984375,0.15446341796874996,-0.56609404296875,-0.021712167968749974,-26.26645741561697,-6.519761955987871,-46.3453032478733
1694133543.1768863,0.0027666406249999996,0.0036542382812499996,1.0067043359375,0.23075736328124996,1.3336251953125,1.33632005859375,-27.716472780240995,-7.305922559015216,-46.31184866596411
1694133543.19687,0.0019731835937499996,0.0032880273437499996,1.00530052734375,0.59696830078125,0.46387421875,-1.372115,-26.648396345792754,-7.205163960382404,-46.00902687519263
1694133543.2168756,0.0026445703124999996,0.0037152734374999996,1.0053615625,0.36045707031249996,-0.47454130859375,-0.75413404296875,-27.809561390958766,-7.226495074640216,-47.02718181562232
1694133543.2368777,0.0028276757812499996,0.0034711328124999996,1.00566673828125,-0.25752388671875004,0.6317208984375,0.98536791015625,-26.256721102140407,-6.841496661554277,-43.95709137372779
1694133543.2568777,0.0020342187499999996,0.0038373437499999996,1.004629140625,0.18498099609374996,0.677497265625,-0.49473462890625,-26.72441628536795,-7.133666263116778,-47.59553150971412
1694133543.2768948,0.0027666406249999996,0.0031049218749999996,1.00566673828125,1.1386553125,-0.64238798828125,-0.83042798828125,-27.569411300260526,-7.55182612688631,-45.95583035321997
1694133543.2968862,0.0018511132812499996,0.0035321679687499996,1.0064601953125,0.48252738281249996,-0.2075125,-0.29637037109375,-26.709453819181423,-6.735775463800373,-46.31669979499244
1694133543.3169072,0.0017900781249999996,0.0029828515624999996,1.00566673828125,0.04002249999999996,0.48676240234375,-0.4718464453125,-26.983140018278103,-7.573763339776933,-46.064623793405524
1694133543.3368998,0.0019731835937499996,0.0035321679687499996,1.00493431640625,0.20786917968749996,1.02082001953125,-0.73887525390625,-26.689486412321074,-6.610107556085529,-46.08114685614966
1694133543.3569002,0.0017900781249999996,0.0034100976562499996,1.00493431640625,0.619856484375,-0.7110525390625,-0.7465046484375,-26.801053879362083,-6.562710965265216,-44.54727524750709
1694133543.3769536,0.0021562890624999996,0.0034711328124999996,1.0054836328125,0.36045707031249996,1.02082001953125,5.0823527734375,-26.60586543453787,-7.7937099130191205,-45.81101668366431
1694133543.396925,0.0016680078124999996,0.0035321679687499996,1.004629140625,-0.013383261718750039,2.86713349609375,-0.08274732421874997,-26.640572683317163,-6.794045855401935,-45.545145447702396
1694133543.4169588,0.0019731835937499996,0.0030438867187499996,1.00493431640625,-0.05915962890625004,-2.1758962890625,2.3357707421875,-27.516753889615995,-7.651086789972247,-45.377605638620366
1694133543.436921,0.0024004296874999996,0.0031049218749999996,1.0045070703125,-0.03627144531250004,-0.64238798828125,2.77064623046875,-26.871856612272246,-6.690245965265214,-46.102135633249276
1694133543.4569232,0.0021562890624999996,0.0034100976562499996,1.00359154296875,-0.18122994140625004,0.31891572265625,0.29872240234375,-27.00782137948416,-7.1826935629214645,-46.25388938141822
1694133543.4769325,0.0024614648437499996,0.0034100976562499996,1.0045070703125,0.20786917968749996,-1.31377470703125,0.367386953125,-27.182418742887478,-7.493016296808184,-45.840434041940675
1694133543.4969327,0.0024614648437499996,0.0027387109374999996,1.00432396484375,0.50541556640625,-0.03966582031249999,0.13087572265625003,-26.773733694913847,-6.354278669855059,-46.59763644550513
1694133543.5169237,0.0023393945312499996,0.0036542382812499996,1.0040187890625,-0.13545357421875004,0.1739572265625,0.66493333984375,-28.05013195492361,-7.332084709405841,-44.971625412668224
1694133543.536953,0.0020952539062499996,0.0034100976562499996,1.004385,0.23075736328124996,1.715094921875,-0.78465162109375,-26.99752351327322,-6.784358151788654,-46.83312957953834
1694133543.5569444,0.0018511132812499996,0.0034100976562499996,1.00432396484375,0.10868705078124996,-0.27617705078125,-0.14378248046874997,-27.128685053312285,-7.704200588800372,-46.037236169626226
1694133543.576934,0.0026445703124999996,0.0036542382812499996,1.00420189453125,-0.05915962890625004,-0.59661162109375,1.7559367578125,-26.74446676693533,-6.637545601983966,-45.01377919172095
1694133543.5969396,0.0022173242187499996,0.0039594140625,1.0040187890625,0.40623343749999996,1.5472482421875,-1.02879224609375,-26.857873737028108,-6.956247126398029,-46.21660285163306
1694133543.6169784,0.0026445703124999996,0.0035321679687499996,1.0035305078125,0.32993949218749996,-1.57317412109375,0.55812181640625,-27.103131400968532,-7.199802196710529,-45.43963413324928
1694133543.6369345,0.0025224999999999996,0.0032880273437499996,1.00334740234375,-0.08204781250000004,-0.64238798828125,-0.044600351562499974,-26.59207766036795,-6.7598822084292784,-45.97058432111549
1694133543.6569428,0.0021562890624999996,0.0027997460937499996,1.00389671875,0.52830375,1.02082001953125,0.49708666015625,-27.49810329427908,-7.363356695733966,-45.963431119821536
1694133543.6769388,0.0022173242187499996,0.0037763085937499996,1.00469017578125,0.40623343749999996,1.0894845703125,0.4589396875,-27.116269017423612,-7.262293149347247,-43.85427333564186
1694133543.6969407,0.0027666406249999996,0.0032269921874999996,1.004140859375,0.50541556640625,-0.13884794921875,0.611527578125,-26.486949172086696,-6.61857986956209,-46.26257762372779
1694133543.716939,0.0024614648437499996,0.0030438867187499996,1.00383568359375,-0.13545357421875004,0.10529267578125001,0.10035814453125003,-27.35918467037771,-7.51534327532381,-45.50834574567603
1694133543.736958,0.0027666406249999996,0.0033490624999999996,1.00359154296875,0.16209281249999996,0.94452607421875,-2.03587232421875,-26.832996056730252,-6.583757077081621,-46.496395665231695
1694133543.756951,0.0027666406249999996,0.0037152734374999996,1.00322533203125,0.49778617187499996,-0.68816435546875,-0.8685749609375,-27.60341338900564,-7.611299457940996,-45.242437357858655
1694133543.7770028,0.0021562890624999996,0.0035932031249999996,1.00383568359375,-0.42537056640625004,-0.2075125,0.88618578125,-26.985427043180447,-6.184064698175373,-46.710052254953375
1694133543.7969527,0.0025224999999999996,0.0034100976562499996,1.00298119140625,0.42912162109374996,0.36469208984375,0.25294603515625,-26.977992526578884,-6.3992412992495895,-45.01465020160865
1694133543.8169546,0.0023393945312499996,0.0029828515624999996,1.00359154296875,0.42912162109374996,1.501471875,-0.7617634375,-26.61766846603201,-7.433388916437092,-45.86120488544654
1694133543.8369548,0.0015459374999999996,0.0033490624999999996,1.0034084375,0.35282767578124996,-1.31377470703125,-1.41026197265625,-26.850781226896267,-6.525226626398028,-45.9141627779026
1694133543.8569643,0.0017900781249999996,0.0034711328124999996,1.003164296875,0.32993949218749996,0.19684541015625,-1.18900953125,-27.62618682577322,-7.506618403253498,-45.384815690378176
1694133543.8769615,0.0013628320312499996,0.0031049218749999996,1.00334740234375,-0.03627144531250004,0.70038544921875,0.13850511718750003,-26.504595655729275,-6.360778512140216,-46.50333018964576
1694133543.8969626,0.0024004296874999996,0.0032269921874999996,1.00322533203125,-0.03627144531250004,-1.35955107421875,-0.32688794921875,-26.93121032699392,-7.378517795831621,-45.44187591144751
1694133543.9169705,0.0024004296874999996,0.00402044921875,1.0030422265625,-0.30330025390625004,-0.47454130859375,0.10798753906250003,-27.102862914640408,-7.09369745110506,-45.857141330026614
1694133543.9369779,0.0019121484374999996,0.0032269921874999996,1.00285912109375,-0.08204781250000004,-0.03966582031249999,-0.3497761328125,-26.904582729337672,-6.449700421319903,-46.51430266217994
1694133543.956977,0.0022783593749999996,0.0034100976562499996,1.0035305078125,0.58170951171875,-0.787346484375,-0.365034921875,-27.992515897184354,-7.259320458429277,-45.94918968744849
1694133543.9769814,0.0023393945312499996,0.0027997460937499996,1.00285912109375,0.52830375,-0.5279470703125,0.4131633203125,-26.69596291659353,-6.93716602141756,-46.7551210763645
1694133543.9969838,0.0027666406249999996,0.0036542382812499996,1.00334740234375,-0.47114693359375004,0.8911203125,1.76356615234375,-27.152118455900172,-7.795576374444903,-45.42558862433814
1694133544.0169861,0.0028887109374999996,0.0034711328124999996,1.0023098046875,0.40623343749999996,1.715094921875,0.7030803125,-26.602170067228297,-7.0080139149722465,-44.64091083905982
1694133544.036991,0.0020342187499999996,0.00402044921875,1.00273705078125,0.26127494140624996,-1.1993337890625,-0.41844068359375,-26.438806141691185,-7.0416026127261535,-46.16347734333228
1694133544.057,0.0022783593749999996,0.0032880273437499996,1.0034084375,0.37571585937499996,-0.85601103515625,-0.83042798828125,-26.91161091891287,-7.645887780694903,-46.31320454657935
1694133544.0769997,0.0024614648437499996,0.0037152734374999996,1.00285912109375,0.10868705078124996,0.6317208984375,1.771195546875,-26.9232977045574,-6.598484790460528,-46.519454671823496
1694133544.0970106,0.0021562890624999996,0.0037152734374999996,1.00346947265625,-0.08967720703125004,-1.06963408203125,-2.00535474609375,-27.541622683195094,-7.73113977141756,-46.326276534738525
1694133544.1170123,0.0017290429687499996,0.0031659570312499996,1.00310326171875,-0.5550702734375,-0.18462431640625,-0.31162916015625,-26.66719029488943,-6.619479738702715,-46.39021983039283
1694133544.1370103,0.0027056054687499996,0.0031049218749999996,1.0030422265625,-0.30330025390625004,1.02082001953125,-0.11326490234374997,-26.911654819547635,-7.111761452081621,-45.84327351374244
1694133544.1570158,0.0024004296874999996,0.0034100976562499996,1.002676015625,0.42912162109374996,0.39520966796875,-0.54051099609375,-27.159978172330835,-7.564856372003496,-45.87152600348853
1694133544.1770182,0.0023393945312499996,0.0036542382812499996,1.00273705078125,0.16209281249999996,0.44098603515625,0.20716966796875003,-26.269756517545684,-7.0357488134097474,-45.88704528083228
1694133544.1970208,0.0021562890624999996,0.0032880273437499996,1.00310326171875,0.10868705078124996,-0.4974294921875,-0.365034921875,-27.20972458688162,-7.391178268487873,-46.45296478449439
1694133544.2170336,0.0022783593749999996,0.0029828515624999996,1.00285912109375,0.13920462890624996,0.921637890625,0.7183391015625,-26.7537653073406,-6.670106607355059,-47.22599953339576
1694133544.2370327,0.0021562890624999996,0.0032269921874999996,1.00237083984375,0.67326224609375,-1.1688162109375,-2.379195078125,-26.768517587614042,-7.364257790460528,-45.87695477301978
1694133544.2570343,0.0020952539062499996,0.0031049218749999996,1.002431875,-0.50166451171875,-0.543205859375,-0.58628736328125,-26.504441140958768,-8.104319505792558,-45.957212819650636
1694133544.2770348,0.0024004296874999996,0.0031659570312499996,1.002676015625,0.08579886718749996,1.165778515625,-0.036970957031249974,-26.765563671598418,-7.382470833429278,-45.486183845529546
1694133544.2971983,0.0022173242187499996,0.0032880273437499996,1.00237083984375,0.42912162109374996,-1.72576201171875,0.2605754296875,-27.639580668180443,-7.734394355890215,-44.491886186105724
1694133544.3170686,0.0022173242187499996,0.0029828515624999996,1.0030422265625,0.48252738281249996,-0.787346484375,0.428422109375,-26.705298238126737,-6.792186263605059,-45.6375259477024
1694133544.3370662,0.0024004296874999996,0.0030438867187499996,1.0025539453125,0.009504921874999961,0.57831513671875,2.289994375,-26.6645308575115,-7.783032520929279,-45.295861300485605
1694133544.3570576,0.0032549218749999996,0.0030438867187499996,1.00212669921875,-0.05915962890625004,1.73798310546875,0.19191087890625003,-26.639050725309353,-6.526332282159746,-46.50872844050025
1694133544.3770583,0.0022783593749999996,0.0032269921874999996,1.0023098046875,0.30705130859374996,-1.885979296875,-0.37266431640625,-26.427131869962672,-7.124032159112872,-47.29524412323951
1694133544.3970659,0.0023393945312499996,0.0031049218749999996,1.0018215234375,-0.30330025390625004,0.006110546875000011,-1.524702890625,-27.758682104948026,-7.1325331766909965,-46.09036610004615
1694133544.4170685,0.0020342187499999996,0.0028607812499999996,1.00261498046875,-0.08204781250000004,0.70038544921875,0.64204515625,-26.643193733121855,-6.80867379192537,-45.762446081125255
1694133544.4370704,0.0024614648437499996,0.0031659570312499996,1.00237083984375,0.40623343749999996,-0.88652861328125,-0.6854694921875,-27.355875388151148,-7.427987250421465,-45.5235887523899
1694133544.4570918,0.0027056054687499996,0.0031049218749999996,1.00261498046875,-0.37959419921875004,-0.3753591796875,0.428422109375,-26.45718481771658,-6.948624149347247,-45.78919453779029
1694133544.477083,0.0027056054687499996,0.0037152734374999996,1.00224876953125,-0.013383261718750039,-0.47454130859375,-0.3192585546875,-26.093717269376736,-6.534190338800371,-46.95108713495826
1694133544.4970844,0.0025835351562499996,0.0027387109374999996,1.002187734375,-0.08204781250000004,1.1352609375,-0.4413288671875,-27.714300783170682,-7.319314502374591,-46.02451710163306
1694133544.5171156,0.0020952539062499996,0.0026166406249999996,1.00176048828125,0.32993949218749996,0.2044748046875,-0.914351328125,-26.622023621183377,-6.536478351983964,-46.0149669477024
1694133544.537096,0.0025835351562499996,0.0031049218749999996,1.001699453125,-0.37959419921875004,0.006110546875000011,-0.975386484375,-27.410016563444117,-7.242606555597247,-46.621688671457285
1694133544.5571227,0.0019731835937499996,0.0034711328124999996,1.0015773828125,-0.08204781250000004,0.56305634765625,1.10743822265625,-26.661117902677518,-6.669842192804278,-46.89262243732642
1694133544.5771086,0.0024004296874999996,0.0026166406249999996,1.0030422265625,0.79533255859375,-1.35955107421875,-0.3955525,-27.09505188473318,-6.970048170831621,-46.906155410715094
1694133544.5971048,0.0017900781249999996,0.0034100976562499996,1.00237083984375,-0.50166451171875,0.15106904296875,-1.48655591796875,-26.92266924410818,-8.08571733391756,-45.64041121467017
1694133544.6171112,0.0018511132812499996,0.0033490624999999996,1.00285912109375,-0.22700630859375004,0.02899873046875001,0.5352336328125,-26.8164078250408,-7.050553859308186,-45.48958828119849
1694133544.6371107,0.0021562890624999996,0.0035932031249999996,1.001699453125,0.42912162109374996,-1.64946806640625,-0.639693125,-27.217603429655057,-7.6504856356753725,-46.2008927157688
1694133544.6571152,0.0024004296874999996,0.0035321679687499996,1.0023098046875,0.32993949218749996,-1.10015166015625,-0.94486890625,-26.20847004476736,-7.031798268976152,-46.18490003058814
1694133544.6771169,0.0022173242187499996,0.0035932031249999996,1.0025539453125,-0.11256539062500004,-0.56609404296875,-0.6854694921875,-26.775370858732202,-7.124348947687091,-46.254468254465095
1694133544.6971195,0.0018511132812499996,0.0029218164062499996,1.00212669921875,0.45200980468749996,0.83008515625,0.611527578125,-26.400946264860135,-7.206041364190998,-45.5251948070774
1694133544.7171257,0.0022173242187499996,0.0034100976562499996,1.00176048828125,0.25364554687499996,-1.31377470703125,-1.34922681640625,-26.633077473356227,-6.516978804132404,-45.91268581989478
1694133544.7371287,0.0019121484374999996,0.0037152734374999996,1.00273705078125,-0.42537056640625004,-0.68816435546875,-2.2266071875,-27.354598063566186,-7.222815141534747,-44.890230805124276
1694133544.757133,0.0015459374999999996,0.0029828515624999996,1.00188255859375,-0.005753867187500039,0.2960275390625,-0.19718824218749997,-26.663526686490993,-6.611279934991778,-46.03500004609107
1694133544.7771342,0.0022783593749999996,0.0030438867187499996,1.00194359375,0.009504921874999961,-1.2908865234375,-0.83042798828125,-26.523352316617945,-7.764221432550372,-45.31842782465553
1694133544.7971532,0.0019121484374999996,0.0031659570312499996,1.0023098046875,-0.10493599609375004,-0.9551931640625,0.45131029296875,-26.65015638412283,-6.70663931878084,-45.571968596872324
1694133544.8171558,0.0022783593749999996,0.0028607812499999996,1.00237083984375,-0.11256539062500004,0.22736298828125,-1.99009595703125,-26.56479223629568,-6.630679705987872,-46.33152280072974
1694133544.8371494,0.0027666406249999996,0.0035321679687499996,1.002676015625,0.26127494140624996,0.9674142578125,1.07692064453125,-26.855437726652124,-7.322863425226154,-45.77626627997779
1694133544.8571508,0.0024004296874999996,0.0026776757812499996,1.00298119140625,0.59696830078125,-1.2908865234375,1.221879140625,-26.593785951383573,-6.687772116632404,-46.45544406012916
1694133544.87718,0.0019731835937499996,0.0032880273437499996,1.00237083984375,-0.30330025390625004,-1.10015166015625,1.15321458984375,-27.245454033658962,-7.2423477430972465,-45.43898277875709
1694133544.8971684,0.0017900781249999996,0.0035932031249999996,1.00273705078125,0.23075736328124996,0.372321484375,0.54286302734375,-25.993662574674584,-6.441048484308185,-46.22026694843482
1694133544.9171643,0.0018511132812499996,0.0029828515624999996,1.00273705078125,0.55119193359375,-1.43584501953125,-0.54051099609375,-26.534479629606228,-6.366198903741777,-46.93917657172584
1694133544.9371676,0.0027056054687499996,0.0027997460937499996,1.00212669921875,-0.70002876953125,-0.909416796875,-0.69309888671875,-26.978530911466578,-7.14282515862459,-46.02599308112525
1694133544.9571726,0.0027056054687499996,0.0027997460937499996,1.001699453125,-0.28041207031250004,-0.7415701171875,1.2066203515625,-26.827872536588647,-6.705240586358967,-46.8007344197483
1694133544.9771748,0.0021562890624999996,0.0029218164062499996,1.0030422265625,0.26127494140624996,-0.7110525390625,0.4436808984375,-27.19334175521658,-7.381957621026935,-46.10915138288306
1694133544.997191,0.0022783593749999996,0.0032269921874999996,1.00261498046875,0.48252738281249996,-0.39824736328125,0.550492421875,-26.336718389982206,-6.255330418878497,-46.770295534494394
1694133545.0171869,0.0022173242187499996,0.0033490624999999996,1.00212669921875,0.16209281249999996,-0.35247099609375,-2.02061353515625,-26.339735392301538,-6.819239551202716,-46.08056528278541
1694133545.0371883,0.0012407617187499996,0.0031049218749999996,1.00237083984375,-0.05915962890625004,-0.35247099609375,2.28236498046875,-26.632816952360137,-7.771028105890215,-46.053084635202396
1694133545.0571928,0.0024614648437499996,0.0032880273437499996,1.00188255859375,0.35282767578124996,-1.702873828125,-1.31107984375,-26.973045159147244,-6.609531976007403,-46.32441672760962
1694133545.0772102,0.0023393945312499996,0.0029218164062499996,1.00237083984375,-0.11256539062500004,-1.1688162109375,-1.18900953125,-27.752491192594512,-7.658377382745684,-45.94126798713111
1694133545.0972629,0.0024614648437499996,0.0034711328124999996,1.0027980859375,0.18498099609374996,-0.68816435546875,0.93959154296875,-26.27455974471853,-6.608353974054278,-46.834692438913336
1694133545.1172473,0.0031328515624999996,0.0029218164062499996,1.00249291015625,-0.40248238281250004,-1.00096953125,-0.20481763671874997,-26.673661032560332,-7.208277003351153,-45.96322758466529
1694133545.1372101,0.0017290429687499996,0.0029828515624999996,1.00359154296875,-0.54744087890625,-1.0772634765625,-1.82224927734375,-26.26498394991873,-7.42969342376131,-46.443321606760016
1694133545.1572185,0.0019731835937499996,0.0027387109374999996,1.00292015625,-0.08204781250000004,-0.35247099609375,0.9319621484375,-26.76517893942068,-6.5892840941714645,-46.05975296576881
1694133545.1772134,0.0024614648437499996,0.0035932031249999996,1.00285912109375,-0.45588814453125004,0.94452607421875,0.83278001953125,-27.55382504086111,-7.5684826483706855,-45.58795907099342
1694133545.197264,0.0021562890624999996,0.0034711328124999996,1.003164296875,-0.18122994140625004,-1.12303984375,2.076371328125,-26.549191323575954,-6.616637958917559,-46.0911487622776
1694133545.21724,0.0025224999999999996,0.0029218164062499996,1.00310326171875,-0.11256539062500004,-1.4129568359375,1.0540324609375,-26.641546448331816,-7.093455480890215,-45.75003861335181
1694133545.2372918,0.0029497460937499996,0.0033490624999999996,1.00359154296875,-0.23463570312500004,-0.11595976562499999,0.306351796875,-26.725676191495875,-6.871612501398029,-44.75111145612525
1694133545.2572424,0.0022783593749999996,0.0032269921874999996,1.00310326171875,0.18498099609374996,-1.10015166015625,-1.0516804296875,-26.851668112028104,-6.825171929620684,-46.107562680978766
1694133545.2772357,0.0020952539062499996,0.0038983789062499996,1.003652578125,-0.5703290625,-1.1688162109375,0.54286302734375,-27.513288874601344,-7.243883066827714,-45.360890096017826
1694133545.297247,0.0018511132812499996,0.0029828515624999996,1.003652578125,0.18498099609374996,0.2960275390625,-0.29637037109375,-26.728071674894313,-6.687505208917559,-45.77990428022193
1694133545.3172674,0.0027056054687499996,0.0033490624999999996,1.0037746484375,0.6503740625,0.006110546875000011,-0.5633991796875,-27.706394713834744,-7.368061176202716,-44.97863020746802
1694133545.337259,0.0025835351562499996,0.0036542382812499996,1.00383568359375,0.30705130859374996,-0.64238798828125,0.2605754296875,-27.073274653654074,-6.886327764093339,-46.30174671405982
1694133545.357277,0.0026445703124999996,0.0033490624999999996,1.00432396484375,-0.5245526953125,-0.47454130859375,-2.2113483984375,-26.717527881681423,-6.947696233819903,-46.284606748361576
1694133545.3772562,0.0023393945312499996,0.0027387109374999996,1.003652578125,-0.7992108984375,-0.88652861328125,1.36683763671875,-27.750134156095488,-7.290525090753498,-45.87697236103248
1694133545.3972657,0.0022783593749999996,0.0034100976562499996,1.00456810546875,0.21549857421874996,-0.9551931640625,0.57338060546875,-26.38555418514822,-6.990585999444903,-46.153779272165295
1694133545.4172902,0.0025224999999999996,0.0030438867187499996,1.00395775390625,-0.6466230078125,-0.543205859375,0.22242845703125003,-27.79516765633963,-7.818309960870684,-45.72822176764869
1694133545.4372637,0.0021562890624999996,0.0034100976562499996,1.00444603515625,-0.40248238281250004,-0.23040068359375,0.3521281640625,-26.478002937101348,-6.7636331991519345,-46.061212825021734
1694133545.4572654,0.0021562890624999996,0.0031659570312499996,1.0047512109375,-0.18122994140625004,-0.787346484375,0.7183391015625,-27.219303814664823,-6.844442630792559,-47.05030013776587
1694133545.4772673,0.0028887109374999996,0.0033490624999999996,1.0045070703125,-0.42537056640625004,-0.39824736328125,1.1761027734375,-26.999115364225368,-7.557180390069902,-45.11353514826392
1694133545.4973328,0.0023393945312499996,0.0033490624999999996,1.00481224609375,-0.13545357421875004,-0.9551931640625,-1.92143140625,-26.587883885953882,-6.462459403253496,-46.77486867109107
1694133545.5172884,0.0019731835937499996,0.0034100976562499996,1.00444603515625,0.20786917968749996,0.4180978515625,-0.69309888671875,-27.53796925509451,-7.294309135187091,-46.41407171076392
1694133545.5372803,0.0021562890624999996,0.0036542382812499996,1.0045070703125,0.59696830078125,-0.2075125,-0.22770582031249997,-26.849457980924587,-7.110951402276934,-47.39112861542701
1694133545.5572817,0.0019731835937499996,0.0032269921874999996,1.00481224609375,-0.62373482421875,-0.8331228515625,1.68727220703125,-26.827427956876736,-7.136549807550374,-46.30025314655494
1694133545.5772834,0.0018511132812499996,0.0031659570312499996,1.005605703125,-0.34907662109375004,-0.30669462890625,0.98536791015625,-27.169750226896266,-6.880855614190996,-45.70639913251686
1694133545.5973542,0.0017290429687499996,0.0034100976562499996,1.00505638671875,0.10868705078124996,-0.11595976562499999,0.062211171875000026,-26.831391691862084,-6.775908282648029,-46.87797319135474
1694133545.6172953,0.0019731835937499996,0.0032269921874999996,1.00530052734375,-0.23463570312500004,-0.97808134765625,-0.22770582031249997,-26.914583901945093,-7.491480973077716,-45.918526724679936
1694133545.637298,0.0022783593749999996,0.0030438867187499996,1.0057277734375,-0.34907662109375004,-0.47454130859375,0.93959154296875,-27.107069202970486,-6.426146812433184,-46.3908738852024
1694133545.6573095,0.0022783593749999996,0.0030438867187499996,1.0054836328125,0.30705130859374996,-0.543205859375,1.24476732421875,-27.7608360750408,-7.440060287042559,-46.38666968854712
1694133545.6773033,0.0024614648437499996,0.0036542382812499996,1.00591087890625,0.25364554687499996,-1.43584501953125,0.17665208984375003,-26.702438008634548,-6.732850118585528,-45.582738023508064
1694133545.6973062,0.0024614648437499996,0.0031049218749999996,1.00603294921875,-0.66951119140625,-0.93230498046875,-0.54051099609375,-26.835611339933376,-6.860123812921466,-45.61272983271217
1694133545.7173097,0.0022173242187499996,0.0032880273437499996,1.00578880859375,-0.40248238281250004,-0.665276171875,1.221879140625,-27.494697932584746,-7.263671335870685,-44.66024987690162
1694133545.7373629,0.0023393945312499996,0.00402044921875,1.00615501953125,-0.08967720703125004,-0.56609404296875,1.45839037109375,-26.6810580236492,-6.477343007257403,-45.7427771117649
1694133545.7573872,0.0017290429687499996,0.0033490624999999996,1.006338125,-0.5703290625,-1.05437529296875,2.05348314453125,-27.095307797819117,-7.414905226007403,-45.06319200727271
1694133545.7773266,0.0025224999999999996,0.0038373437499999996,1.00664330078125,-0.600846640625,-0.97808134765625,-0.021712167968749974,-26.070194653287867,-6.9796928422183395,-46.65623947284888
1694133545.797324,0.0022783593749999996,0.0031659570312499996,1.0062160546875,-0.40248238281250004,-0.01677763671874999,0.13087572265625003,-26.786211404874784,-6.846933916437091,-45.853740827219
1694133545.8173585,0.0020952539062499996,0.0029218164062499996,1.00664330078125,0.13157523437499996,-0.3295828125,-0.88383375,-27.62946238766287,-7.699469924249591,-46.282518676828374
