Time,ACCX,ACCY,ACCZ,GYRX,GYRY,GYRZ,MAGX,MAGY,MAGZ
1694135518.0403452,0.00575736328125,-0.03980279296875,1.0049953515625,0.39097464843749996,-0.26854765625,30.29750169921875,-27.034068421354274,-4.646547627862872,-44.747323039255136
1694135518.060294,0.00710013671875,-0.029609921875,1.00420189453125,0.29179251953124996,-1.73339140625,35.1269084375,-26.197042443449003,-3.5093209970034964,-46.17753130768775
1694135518.080263,0.00478080078125,-0.04077935546875,1.00432396484375,0.16972220703124996,-0.58135283203125,41.90944017578125,-27.14974407650564,-4.17604161956209,-44.069152488107676
1694135518.1002576,0.01637748046875,-0.0556108984375,1.00530052734375,0.6351152734375,-1.13066923828125,47.6848918359375,-26.374413097135523,-3.253294419366778,-45.719931328317635
1694135518.1202645,0.0214433984375,-0.0563433203125,1.00420189453125,-0.17360054687500004,-2.191155078125,48.61567796875,-27.110701914518337,-3.962912308038653,-44.89241297944068
1694135518.14026,0.02126029296875,-0.02332330078125,1.0040187890625,0.04765189453124996,0.7843087890625,47.4407512109375,-26.551801777799586,-2.6763487880191223,-45.2533593247776
1694135518.1602883,-0.00773140625,0.012382265625,1.0067043359375,0.49015677734374996,0.25788056640625,54.36061205078125,-26.310738928312283,-2.9149418119449035,-44.44956696796607
1694135518.1802707,-0.0013837500000000004,0.0179975,1.00395775390625,0.25364554687499996,-2.58025419921875,52.81947435546875,-25.546844140348412,-2.676003280206622,-44.44205431379127
1694135518.2003012,-0.0038251562500000004,-0.02112603515625,1.00517845703125,-0.48640572265625004,-3.7322927734375,49.0581828515625,-25.647027535490018,-1.8650325502261529,-46.26739018049049
1694135518.2202787,0.0034990624999999996,-0.04834771484375,1.0049953515625,-0.17360054687500004,-0.9857107421875,49.61512865234375,-26.855217139371856,-2.1321923778628724,-44.45381582770728
1694135518.2402894,0.0487871484375,-0.0209429296875,1.00493431640625,-0.04390083984375004,-2.404778125,56.0772258203125,-25.70356382198904,-1.1488954838199037,-45.771448925363536
1694135518.260286,0.06593802734375,0.016776796875,1.004140859375,-0.02101265625000004,-2.29033720703125,66.00306810546876,-25.53673904159353,-1.5141816146792784,-44.17139298615455
1694135518.2802868,0.0448808984375,0.02629828125,1.00517845703125,-0.29567085937500004,-2.5268484375,78.92726244140626,-25.30033729977224,-0.851505080499591,-44.93226871955299
1694135518.3002906,-0.02549263671875,-0.05573296875,1.00389671875,0.07816947265624996,-2.09197294921875,79.00355638671876,-24.89164991818045,-0.24911006487459098,-44.79446917829322
1694135518.3202944,0.0561113671875,-0.08667779296875,1.0049953515625,0.31468070312499996,-3.106682421875,61.5398723046875,-26.129465249235135,-0.6131758402652161,-44.36470266620826
1694135518.34029,0.0299883203125,-0.0825884375,1.0025539453125,-1.11964546875,0.6927560546875,55.604203359375,-25.13695964230154,0.21332146979337763,-45.630977139352794
1694135518.3602965,-0.0166425390625,-0.06104302734375,1.00713158203125,-0.19648873046875004,0.2349923828125,57.8167277734375,-25.710502560758574,-0.3770765951480284,-44.3140983963108
1694135518.3803146,0.0426836328125,0.02141546875,1.005605703125,2.96208060546875,-0.939934375,70.5425578515625,-25.062573627775176,1.1783716304379093,-45.8558558864231
1694135518.4003284,0.0844316796875,0.0732953515625,1.006093984375,0.34519828124999996,-2.4810720703125,68.7420207421875,-24.732688422086696,1.4999554527035341,-46.11939193158912
1694135518.4203057,0.03230765625,0.008964296875,1.0069484765625,-0.7076581640625,0.95215546875,58.05323900390625,-26.029839381559352,0.7529199273129092,-44.95089842035865
1694135518.4403107,0.01247123046875,-0.01953912109375,1.003164296875,-0.26515328125000004,-1.03911650390625,47.5628215234375,-24.98332810641287,2.375162637273846,-46.53807839533423
1694135518.4603128,-0.033854453125,0.0151898828125,1.00682640625,-0.12019478515625004,-2.3590017578125,46.79225267578125,-25.71813321847341,0.9532035825863463,-45.27812414350318
1694135518.4803157,0.02895072265625,0.11717962890625,1.005605703125,0.73429740234375,1.31836640625,56.89357103515625,-24.527171332853296,1.8862839556332214,-46.283571478830325
1694135518.5003195,0.05898001953125,0.17479681640625,1.0079250390625,1.44383109375,0.66986787109375,57.54969896484375,-24.467293945890404,2.6612202427425964,-45.89243037885475
1694135518.5203223,-0.0124921484375,0.0703656640625,1.0054836328125,1.718489296875,-0.4363943359375,47.14320482421875,-25.14863171529959,1.917643862859784,-45.87728520685767
1694135518.5403235,-0.0327558203125,-0.03760552734375,1.00798607421875,-0.34144722656250004,-2.8472830078125,39.83424486328125,-24.19330081356619,3.0533532798519714,-45.597516379220956
1694135518.5603294,-0.023600546875,-0.03723931640625,0.998525625,-1.41719185546875,0.6927560546875,34.241898671875,-24.94677240853689,2.6602548970394713,-45.20827877094459
1694135518.5803301,-0.0256757421875,0.04479193359375,1.00615501953125,-0.51692330078125,-0.87126982421875,39.5214396875,-24.049866769376738,3.4098540694027526,-45.43978329609107
1694135518.6003492,-0.03184029296875,0.104179140625,1.00798607421875,-0.50929390625,-2.3895193359375,36.7138225,-24.14009956429861,3.7155097320004087,-45.4423770159397
1694135518.620347,-0.01877876953125,0.04711126953125,1.00737572265625,-0.19648873046875004,0.616462109375,36.4849406640625,-23.68468412338064,3.6751642778988463,-45.792326413522716
1694135518.6403432,-0.0009565039062500004,-0.0018389257812500004,1.0073146875,0.53593314453125,-0.33721220703125,33.753617421875,-23.778840126310328,4.15895245905119,-46.96109643061256
1694135518.6603465,-0.0054120703125,-0.03821587890625,1.00566673828125,0.14683402343749996,-0.96282255859375,19.69264330078125,-24.816805726896266,3.541281580633221,-45.968085359933845
1694135518.6803527,-0.0059003515625,-0.0553667578125,1.00456810546875,-0.73054634765625,1.84479462890625,16.57985033203125,-23.79164383651541,4.248345815984784,-45.97874206415747
1694135518.7003553,-0.00632759765625,-0.0396196875,1.0052394921875,-0.88313423828125,0.5706857421875,22.9656535546875,-23.724374971525172,3.6482937168636904,-44.46106250776099
1694135518.720372,-0.0019941015625000004,-0.0036089453125000004,1.0052394921875,0.5435625390625,-0.99334013671875,23.49208177734375,-23.90311995065115,4.75453583014494,-45.003889397043224
1694135518.7403798,-0.0012006445312500004,0.015311953125,1.00627708984375,-0.56269966796875,-2.5268484375,22.6604777734375,-23.352395528287868,4.54657372076994,-45.39161731757545
1694135518.7603748,-0.0181073828125,0.0022504296874999996,1.00591087890625,-1.37141548828125,1.17340791015625,25.04847826171875,-24.11267649374197,3.8592578521175964,-45.8498242235813
1694135518.780374,0.0207109765625,0.0022504296874999996,1.00322533203125,0.7571855859375,0.16632783203125,5.62403978515625,-23.111572171354272,4.542844543523846,-46.96070694831275
1694135518.800391,0.08083060546875,0.050956484375,1.006093984375,0.16972220703124996,-1.37480986328125,23.14112962890625,-24.0741791510906,3.7524658936215025,-45.386083336862555
1694135518.8203835,-0.0310468359375,0.0029828515624999996,1.005117421875,-0.36433541015625004,1.8676828125,24.171097890625,-23.407581282926543,4.995153104559002,-44.98724363556861
1694135518.8403885,0.0023393945312499996,0.0209271875,1.00432396484375,-0.28804146484375004,1.0284494140625,26.002152578125,-23.42819296224783,4.888851914129315,-45.37274466559791
1694135518.8603888,-0.0588788671875,-0.0102007421875,1.00517845703125,0.07816947265624996,-0.39061796875,23.84303392578125,-24.18454624667166,4.482732627996503,-45.235287478464116
1694135518.880391,-0.04831978515625,-0.01831841796875,1.0057277734375,-0.19648873046875004,-2.191155078125,24.97218431640625,-23.193826611051538,5.394740720281659,-45.69098396613502
1694135518.9004157,-0.02482125,-0.0029985937500000004,1.00627708984375,-1.09675728515625,1.67694794921875,24.0337687890625,-23.505501133878692,4.7195109907894714,-44.7237507857151
1694135518.9203985,0.03139212890625,0.03636908203125,1.00603294921875,0.83347953125,0.28076875,25.0408488671875,-23.251640281461697,5.279484543523846,-45.91583995978736
1694135518.9404025,0.02882865234375,0.05321478515625,1.0040187890625,0.39097464843749996,-1.49688017578125,22.0196086328125,-23.168003491666774,5.563748012762128,-46.3748051532688
1694135518.9604056,0.02650931640625,0.023856875,1.0054836328125,-0.539811484375,1.41754853515625,17.4419719140625,-23.007163242887476,4.806792813055097,-45.12476937128638
1694135518.9804099,0.02357962890625,-0.0008623632812500004,1.00517845703125,0.0018755273437499609,1.5777658203125,12.06324876953125,-22.760812194425565,5.6852221802425955,-45.73438162787818
1694135519.0004146,0.020833046875,0.004081484375,1.00627708984375,-0.02101265625000004,-0.6500173828125,12.47523607421875,-23.565165155485136,4.828711321355877,-44.72900628473853
1694135519.0204191,0.01576712890625,0.0501019921875,1.0053615625,0.04765189453124996,0.37995087890625,16.0686808984375,-23.214366004484155,5.883426717840253,-45.85005518830299
1694135519.0404568,0.0522051171875,0.09178900390625,1.0053615625,0.7571855859375,0.5706857421875,13.489945546875,-22.796088234098416,5.068959418035565,-45.535821360177984
1694135519.060429,0.04213431640625,0.08690619140625,1.00566673828125,1.0318437890625,0.28076875,5.3875285546875,-22.858326952604273,5.345505140691815,-45.15842797760963
1694135519.0804656,0.0288896875,0.0259320703125,1.00481224609375,0.07816947265624996,1.50910126953125,0.69545091796875,-23.02515957967947,5.603079492742597,-46.306496932321544
1694135519.10043,0.01369193359375,0.0330121484375,1.00554466796875,-0.75343453125,1.9439767578125,0.18428148437500003,-23.980332355680446,4.877096296941815,-45.57186596430396
1694135519.120433,0.0024004296874999996,0.01854681640625,1.0053615625,1.108137734375,0.9063791015625,0.611527578125,-22.81939754415701,5.772377404851971,-45.532222722848886
1694135519.1404345,0.0014238671874999996,0.0023724999999999996,1.00584984375,-0.5550702734375,-0.70342314453125,1.49653734375,-22.466341774259547,4.565051199285565,-45.0638112536106
1694135519.1604395,0.0082598046875,-0.00952935546875,1.0032863671875,0.0018755273437499609,1.6998361328125,6.86000169921875,-22.81182567770193,2.440640750066815,-44.32052590509986
1694135519.1804476,0.0038652734374999996,0.0011517968749999996,1.00517845703125,0.83347953125,0.25788056640625,4.0752726953125,-22.792131246427516,5.4115525376644715,-45.195151754587165
1694135519.2004526,-0.0022992773437500004,0.00902533203125,1.0052394921875,0.61222708984375,-0.07781279296874999,-1.219527109375,-23.573075638517363,5.044350028387127,-45.11694167328834
1694135519.2204542,-0.0018720312500000004,0.0112836328125,1.00456810546875,-0.09730660156250004,-2.12249052734375,-0.6244343359375,-22.507757781705838,6.368377341375409,-44.810033184885015
1694135519.2404547,0.0006304101562499996,0.0033490624999999996,1.00517845703125,-0.9517987890625,1.84479462890625,1.12269701171875,-22.684649213956813,5.019882222234784,-45.71625325373267
1694135519.2604585,0.0016680078124999996,0.0023724999999999996,1.00481224609375,0.6656328515625,0.25788056640625,1.93141283203125,-22.40597443539236,5.532147439031659,-42.70832333869361
1694135519.280461,0.0019731835937499996,0.0026776757812499996,1.00395775390625,0.12394583984374996,-1.9012380859375,-0.88383375,-22.593844254484157,5.978536057195721,-45.527823346017826
1694135519.300464,0.0020342187499999996,0.0032880273437499996,1.00487328125,-0.36433541015625004,1.4862130859375,-0.052229746093749974,-24.12832228780935,4.820838278875408,-44.756351202463144
1694135519.3204672,0.0016069726562499996,0.0035932031249999996,1.00469017578125,0.5130449609375,1.12763154296875,0.5047160546875,-22.791427320646267,5.6997041836605655,-46.33166936371803
1694135519.3404784,0.0012407617187499996,0.0024945703124999996,1.005117421875,0.58933890625,-1.03911650390625,-0.78465162109375,-23.749247020109156,5.17230032623869,-45.35338002045631
1694135519.3604808,0.0006304101562499996,0.0024335351562499996,1.00456810546875,-0.14308296875000004,1.4862130859375,-0.70835767578125,-22.73128493966482,5.679920270086346,-46.65143928315162
1694135519.3804913,0.0022173242187499996,0.0023724999999999996,1.00432396484375,-0.48640572265625004,0.3570626953125,0.8709269921875,-23.029696400602322,5.767128499578533,-46.11869783674049
1694135519.4005306,0.0006914453124999996,0.0031049218749999996,1.0045070703125,0.02476371093749996,-0.0015188476562499886,0.58863939453125,-22.726837078702907,5.146956362859783,-45.29777819086647
1694135519.4204915,0.0017900781249999996,0.0031049218749999996,1.00371361328125,0.14683402343749996,-0.8026052734375,0.52760423828125,-22.842264667448024,5.9546076475277525,-46.010584058664314
1694135519.4404926,0.0024614648437499996,0.0018842187499999996,1.00383568359375,-0.31855904296875004,1.6998361328125,-1.31870923828125,-24.05463719759939,4.799470392156659,-46.349021119089116
1694135519.460494,0.0023393945312499996,0.0026166406249999996,1.004629140625,0.9097734765625,0.76142060546875,-0.15141187499999997,-23.078494983121853,5.8272023692074395,-46.12172374494361
1694135519.480498,0.0009966210937499996,0.0028607812499999996,1.00432396484375,0.93266166015625,-0.009148242187499989,-1.097456796875,-22.57894628683279,5.262930313055096,-45.014847725168224
1694135519.5005043,0.0013017968749999996,0.0025556054687499996,1.00407982421875,0.71140921875,1.29547822265625,-1.55522046875,-22.50116422884939,5.062358552312909,-45.4183548194065
1694135519.5205035,0.0018511132812499996,0.0031659570312499996,1.0049953515625,0.22312796874999996,0.982673046875,-1.19663892578125,-22.85395598544119,5.916460402410565,-45.73376128132057
1694135519.5405073,0.0017900781249999996,0.0029828515624999996,1.0045070703125,0.44438041015624996,0.04425751953125001,-1.1737507421875,-23.521097573575954,5.164798344793377,-45.53463702826881
1694135519.5605128,0.0021562890624999996,0.0026776757812499996,1.0040187890625,0.07816947265624996,0.4028390625,-2.32578931640625,-22.634706480314236,5.609763944891034,-45.603872874338144
1694135519.5805142,0.0017290429687499996,0.0026166406249999996,1.0045070703125,0.0018755273437499609,1.409919140625,-1.47129712890625,-22.876935980924586,5.059991329168378,-45.937535474069584
1694135519.6005166,0.0024004296874999996,0.0030438867187499996,1.0047512109375,0.58933890625,0.4028390625,3.50306810546875,-22.851839168668725,6.054879196844158,-44.73047622077369
1694135519.620523,0.0022783593749999996,0.0029218164062499996,1.00389671875,0.5435625390625,-0.3448416015625,-1.31107984375,-22.386409060514428,5.649845005437909,-45.20210067743873
1694135519.6405299,0.0022173242187499996,0.0037152734374999996,1.00432396484375,-0.12019478515625004,1.09711396484375,1.77882494140625,-23.57886151742361,4.8798981743832215,-45.04101828730201
1694135519.6605456,0.0020952539062499996,0.0037763085937499996,1.00395775390625,0.5435625390625,0.5706857421875,3.42677416015625,-22.288636055631617,5.898076488836346,-46.72601578632545
1694135519.6805298,0.0013628320312499996,0.0022504296874999996,1.0042629296875,0.741926796875,-0.9246755859375,1.06166185546875,-23.871851665250755,5.013124177312909,-45.48511727973365
1694135519.700531,0.0036821679687499996,0.00572943359375,1.00359154296875,0.04765189453124996,1.2420724609375,3.01478685546875,-22.50295247445486,6.310433080144941,-45.415339477243414
1694135519.7205365,0.004475625,0.008231875,1.00456810546875,-0.38722359375000004,0.47150361328125,3.113968984375,-22.641879004362085,5.728486746648846,-45.505877168405526
1694135519.740538,0.0017290429687499996,-0.0002520117187500004,1.00371361328125,0.44438041015624996,0.13581025390625,2.70961107421875,-23.49583392684744,4.983186098699628,-44.80395959357642
1694135519.7605436,0.0107012109375,0.01067328125,1.00389671875,-0.53218208984375,-1.7181326171875,2.70961107421875,-22.128498633268336,5.663916066473066,-45.02849981891822
1694135519.7805455,0.0168047265625,0.01360296875,1.00456810546875,-0.63899361328125,1.654059765625,5.52485765625,-23.351324643766382,5.0430379702816595,-44.64477662751197
1694135519.8005466,0.02443412109375,0.01952337890625,1.004629140625,-0.19648873046875004,2.01264130859375,6.37172044921875,-22.372139612638456,5.795250670476971,-45.65560781525611
1694135519.8205523,0.02809623046875,0.020194765625,1.004385,0.07816947265624996,-0.65764677734375,7.6458293359375,-22.619076260953886,5.685202229070721,-45.61849332343482
1694135519.8405542,0.01991751953125,0.0107953515625,1.00554466796875,-0.19648873046875004,1.08185517578125,5.067093984375,-22.09854929879568,5.088894887762127,-44.86559197272682
1694135519.8606,0.0380449609375,0.0016400781249999996,1.0030422265625,0.09342826171874996,1.63117158203125,2.5493937890625,-22.694722435148222,5.887999019598064,-44.99714991803931
1694135519.8805635,0.035481484375,0.0025556054687499996,1.00505638671875,0.26890433593749996,-0.36772978515625,3.76246751953125,-23.56528918868826,4.660138683172283,-44.033518075265874
1694135519.9005647,0.016194375,0.00774359375,1.005605703125,-0.19648873046875004,-1.1077810546875,1.4202433984375,-22.117179668424587,6.102138586492597,-45.66681336310767
1694135519.9205844,0.01570609375,0.0007855859374999996,1.0049953515625,-0.44062935546875004,1.34125458984375,5.15101732421875,-22.159161093107205,5.937920586492597,-45.36182104303931
1694135519.9405806,-0.01096626953125,0.0008466210937499996,1.006338125,0.43675101562499996,0.4791330078125,5.738480703125,-21.792740728116968,5.523194930730877,-45.44390528901099
1694135519.960574,-0.0056562109375,-0.0048296484375,1.00395775390625,0.83347953125,-0.26854765625,2.0000773828125,-22.472062055265408,6.325042312078534,-44.911069197458254
1694135519.9805863,0.01955130859375,-0.01062798828125,1.00285912109375,-0.51692330078125,0.433356640625,-0.31162916015625,-23.453341403165798,5.5728208648129085,-45.48300729853248
1694135520.000594,0.0102129296875,-0.00428033203125,1.0074367578125,0.43675101562499996,0.79193818359375,1.27528490234375,-22.074860963834745,6.066623573797283,-46.45628689472389
1694135520.0206032,-0.0037641210937500004,0.01232123046875,1.00359154296875,0.93266166015625,-0.5584646484375,2.17555345703125,-22.193303280607203,5.147801980535565,-45.67179986750221
1694135520.0405934,-0.02433296875,0.0030438867187499996,1.00584984375,0.44438041015624996,0.42572724609375,2.87745775390625,-22.243646515348413,6.333766553289472,-46.49227464838599
1694135520.0605998,-0.0517987890625,-0.0119097265625,1.00554466796875,0.05528128906249996,0.92926728515625,0.7183391015625,-22.550095925504664,6.193437039617597,-45.857944902170175
1694135520.0805998,-0.04050728515625,-0.023018125,1.0053615625,0.5130449609375,0.9063791015625,-2.9437702734375,-22.779792222990014,5.704936877508222,-45.116061919626226
1694135520.1006017,-0.011149375,-0.0023882421875000004,1.004629140625,-0.21937691406250004,-1.184075,-2.44785962890625,-22.532536262418727,6.562392494207439,-45.54124629731177
1694135520.1206052,0.0022783593749999996,0.00676703125,1.004385,-1.12727486328125,0.37995087890625,-0.2734821875,-23.29762259444998,5.306799752508221,-45.48158621247291
1694135520.140605,-0.00571724609375,0.01073431640625,1.00469017578125,0.49015677734374996,0.9063791015625,3.8616496484375,-22.084680411344507,6.383925713934003,-46.114632813547125
1694135520.160606,-0.0371503515625,-0.0024492773437500004,1.0045070703125,0.56645072265625,0.16632783203125,-0.24296460937499997,-22.24618853194998,6.210891160223065,-46.24609503473853
1694135520.180608,-0.00608345703125,-0.00428033203125,1.0047512109375,0.25364554687499996,1.00556123046875,-0.06748853515624997,-23.452254884611108,5.65848753766447,-45.72757987897682
1694135520.200617,0.0021562890624999996,0.006522890625,1.00389671875,0.36808646484374996,1.6998361328125,-0.24296460937499997,-22.37350609139822,6.753177984930096,-47.10802166840552
1694135520.2206447,0.0026445703124999996,0.0018231835937499996,1.00359154296875,-0.02864205078125004,0.83771455078125,-0.60154615234375,-23.005949198820094,5.961857070379315,-45.771426338571544
1694135520.240629,0.0019121484374999996,0.0033490624999999996,1.00456810546875,-0.07441841796875004,-0.26854765625,0.28346361328125,-21.96880267049978,6.415240732488689,-46.160895300363535
1694135520.2606373,0.0014238671874999996,0.0028607812499999996,1.00407982421875,-0.41774117187500004,0.6927560546875,-0.5633991796875,-22.17009875875662,6.018280993719158,-45.50304114020729
1694135520.28064,0.0022783593749999996,0.0029218164062499996,1.0042629296875,0.68852103515625,-0.009148242187499989,-0.19718824218749997,-22.245226105924587,5.50176406061369,-45.882618707223884
1694135520.3006608,0.0022173242187499996,0.0037763085937499996,1.00420189453125,-0.04390083984375004,0.11292207031250001,-0.38792310546875,-22.39457571017263,6.326419846746502,-46.19502805780982
1694135520.3206441,0.0038652734374999996,0.0023724999999999996,1.004629140625,0.34519828124999996,-0.009148242187499989,-0.33451734375,-23.885280521574,5.611911621160566,-45.35072045234107
1694135520.3406413,0.0015459374999999996,0.00481390625,1.00273705078125,0.34519828124999996,0.4028390625,0.24531664062500003,-22.4463687950115,5.960994631414471,-46.087807942575445
1694135520.36067,0.0036821679687499996,0.0006024804687499996,1.00444603515625,0.0018755273437499609,0.738532421875,-0.975386484375,-22.10519503048513,5.84845801325041,-46.045625620676034
1694135520.3806632,0.0018511132812499996,0.00463080078125,1.005117421875,0.46726859374999996,0.21210419921875,-0.41844068359375,-22.37106327438162,6.3095481758480645,-46.34319535602759
1694135520.400657,0.0023393945312499996,0.0029828515624999996,1.00469017578125,0.12394583984374996,1.07422578125,-1.9366901953125,-22.162030462858183,6.4919405630550955,-46.63610065278052
1694135520.420672,0.0022783593749999996,0.0035321679687499996,1.0037746484375,0.27653373046874996,0.95978486328125,-0.63206373046875,-23.07950927511404,5.710301750066815,-45.73816065815162
1694135520.4406586,0.0025835351562499996,0.0036542382812499996,1.00444603515625,-0.02101265625000004,0.860602734375,-1.74595533203125,-22.39706935311697,6.128747226141034,-46.98929168110084
1694135520.4607053,0.0023393945312499996,0.0028607812499999996,1.0045070703125,-0.12019478515625004,0.04425751953125001,0.336869375,-23.268374006315213,5.624023929266034,-46.42415163129615
1694135520.4806757,0.0020952539062499996,0.0026166406249999996,1.00554466796875,0.07816947265624996,0.92926728515625,1.39735521484375,-22.365741101530055,6.415281881414471,-46.221590567331305
1694135520.5006704,0.0019121484374999996,0.0031659570312499996,1.00481224609375,0.9097734765625,1.29547822265625,-1.1432331640625,-22.414470890470486,6.1695179927425965,-46.29159049030494
1694135520.5206728,0.0028887109374999996,0.0035321679687499996,1.00578880859375,0.5130449609375,1.5777658203125,-1.79173169921875,-23.144759542203886,5.440771596258221,-46.10546525470924
1694135520.540679,0.0025224999999999996,0.0027387109374999996,1.00603294921875,0.39097464843749996,1.84479462890625,-2.3334187109375,-22.705437967374785,5.892490843816815,-46.15582672699927
1694135520.560679,0.0022173242187499996,0.0026166406249999996,1.0054836328125,0.46726859374999996,1.12763154296875,-1.07456861328125,-23.42389765463064,5.216437310125409,-46.29303299677466
1694135520.5806797,0.0022783593749999996,0.0029218164062499996,1.00469017578125,1.13102591796875,-0.19988310546875,-2.806441171875,-22.132900141324978,6.378853302312908,-45.78221139618873
1694135520.6006968,0.0022173242187499996,0.0032880273437499996,1.00517845703125,-0.24226509765625004,1.989753125,-3.72959791015625,-22.179875599210717,6.522524705633221,-47.30279676191138
1694135520.6206932,0.0027056054687499996,0.0030438867187499996,1.00481224609375,0.29179251953124996,2.25678193359375,-0.50999341796875,-23.212780706632596,5.827469276922284,-45.44618396503639
1694135520.6406946,0.0028276757812499996,0.0029218164062499996,1.00652123046875,0.02476371093749996,0.54779755859375,-2.5775593359375,-22.385082262907005,6.591166310125408,-46.29822339081763
1694135520.6606996,0.0022783593749999996,0.0026166406249999996,1.006582265625,0.5130449609375,0.524909375,-0.92198072265625,-23.268846539762478,5.899089847234784,-44.91072044538306
1694135520.6807024,0.0020342187499999996,0.0032880273437499996,1.0047512109375,0.61222708984375,2.1118234375,0.32923998046875,-22.634981654630643,6.833114978094159,-45.33597681525611
1694135520.700705,-0.00028511718750000043,0.0030438867187499996,1.006093984375,0.58933890625,1.2725900390625,-0.88383375,-21.83309964230154,6.098348940008222,-45.354583916208256
1694135520.7207074,0.00526908203125,0.0035321679687499996,1.0071926171875,0.20023978515624996,0.04425751953125001,-0.7617634375,-22.119566011564235,5.672889757391033,-45.47611450165748
1694135520.7407088,0.0014849023437499996,0.0032269921874999996,1.005605703125,-0.07441841796875004,1.09711396484375,0.49708666015625,-22.180879651578884,6.603214388250407,-46.38877941327858
1694135520.7607102,0.0020342187499999996,0.0028607812499999996,1.006093984375,0.34519828124999996,1.55487763671875,1.65675462890625,-23.099306295865993,5.935179809148846,-46.0692522914524
1694135520.7807195,0.0019731835937499996,0.0031049218749999996,1.00584984375,0.16972220703124996,0.1434396484375,1.7864543359375,-22.384246203702908,6.249809183660565,-46.134260798654545
1694135520.800734,0.0029497460937499996,0.0023724999999999996,1.0064601953125,-0.07441841796875004,0.11292207031250001,-1.2653034765625,-22.91561149703787,5.334746676336346,-45.76631138031959
1694135520.8207254,0.0024614648437499996,0.0027387109374999996,1.00615501953125,0.13157523437499996,0.70801484375,-2.623335703125,-22.459023579069118,6.447249196844158,-45.397984767526616
1694135520.8407273,0.0017290429687499996,0.0033490624999999996,1.00530052734375,0.24601615234374996,1.19629609375,-0.853316171875,-22.578340401945095,6.42174431451994,-45.74195753046607
1694135520.8607385,0.0017900781249999996,0.0031659570312499996,1.0059719140625,0.34519828124999996,0.42572724609375,-0.73887525390625,-23.40616864547537,5.751213442449627,-45.295396361154545
1694135520.8807402,0.0018511132812499996,0.0026776757812499996,1.00603294921875,0.10105765624999996,2.1118234375,0.95485033203125,-22.646757831754666,6.538732854559002,-46.71104005243873
1694135520.9007797,0.0031328515624999996,0.0026776757812499996,1.00554466796875,0.36808646484374996,1.654059765625,-0.8075398046875,-23.03928114144705,5.669809747137128,-45.36904426069068
1694135520.9207377,0.0019731835937499996,0.0037152734374999996,1.00322533203125,0.36808646484374996,-0.3448416015625,2.0305949609375,-22.372967765836695,6.870540710027752,-46.18411809040259
1694135520.940738,0.0024004296874999996,0.0015180078124999996,1.009023671875,0.26890433593749996,0.47150361328125,0.64967455078125,-22.022303987028103,6.748146743230877,-46.45109562262916
1694135520.9607513,0.0028887109374999996,0.0036542382812499996,1.00371361328125,0.29179251953124996,1.3946603515625,-1.7535847265625,-22.992325063444117,5.941904163641034,-45.59840484235572
1694135520.98075,0.0014238671874999996,0.0020673242187499996,1.00420189453125,0.15446341796874996,1.55487763671875,-2.1808308203125,-22.44825421944998,6.385793400945721,-46.714179426340095
1694135521.0008342,0.0022783593749999996,0.0018842187499999996,1.00554466796875,0.6351152734375,0.311286328125,-1.70017896484375,-23.18686837374685,5.459598280340252,-45.22350994477271
1694135521.0212839,0.0030718164062499996,0.0035321679687499996,1.00664330078125,-0.07441841796875004,-0.19988310546875,-0.54051099609375,-22.532133562589625,6.408439045476971,-46.21122674323463
1694135521.040927,0.0027666406249999996,0.0031049218749999996,1.00639916015625,0.04765189453124996,-0.26854765625,0.306351796875,-22.31676085323904,7.0880695694027525,-46.5601258169651
1694135521.0608003,0.0022783593749999996,0.0034100976562499996,1.00542259765625,0.61222708984375,-0.33721220703125,-0.90672193359375,-23.676961816129666,5.9347831948910335,-44.95012310029029
1694135521.080793,0.0025224999999999996,0.0032880273437499996,1.00456810546875,-0.34144722656250004,0.95215546875,-1.33396802734375,-22.256123125944118,6.652057730047284,-46.437416453805916
1694135521.100793,0.0027056054687499996,0.0025556054687499996,1.004385,0.76481498046875,1.4862130859375,1.06166185546875,-23.151375654386502,5.982159203680096,-45.005098693429936
1694135521.120793,0.0025224999999999996,0.0026166406249999996,1.00615501953125,0.53593314453125,-0.36772978515625,-0.4718464453125,-22.30621466708181,6.917757067449628,-46.08238703876685
1694135521.1408072,0.0023393945312499996,0.0029218164062499996,1.00456810546875,0.03239310546874996,0.42572724609375,0.16902269531250003,-22.26538524020193,6.324307696355877,-46.044746845529545
1694135521.1608062,0.0026445703124999996,0.004325625,1.00444603515625,0.26890433593749996,1.19629609375,1.710160390625,-21.758175420865992,5.928319557195722,-44.830437688302986
1694135521.1807952,0.0036211328124999996,0.0026166406249999996,1.005605703125,0.7877031640625,0.982673046875,1.36683763671875,-21.97348835824392,6.808649665105878,-45.593125711862555
1694135521.2008328,0.0027056054687499996,0.0016400781249999996,1.00487328125,0.39097464843749996,0.13581025390625,-0.2734821875,-22.990374219083765,5.562884958074628,-45.15753259296607
1694135521.22081,0.0024614648437499996,0.0022504296874999996,1.0045070703125,0.12394583984374996,0.860602734375,-1.18900953125,-21.88324091000174,6.533692271062909,-45.718029235788336
1694135521.2408085,0.0021562890624999996,0.0035321679687499996,1.00444603515625,-0.09730660156250004,1.12763154296875,0.733597890625,-21.927963003995878,6.019381663152753,-45.59280084528541
1694135521.2608116,0.0029497460937499996,0.0037152734374999996,1.00469017578125,0.32231009765624996,0.06714570312500001,-0.72361646484375,-21.718482120450957,6.67128977545744,-45.09182104621314
1694135521.2808115,0.0032549218749999996,0.0039594140625,1.004629140625,-0.09730660156250004,0.09003388671875001,0.21479906250000003,-21.87091212618826,6.629486309148847,-46.16939366266822
1694135521.3008146,0.0025835351562499996,0.0015180078124999996,1.00554466796875,0.39097464843749996,1.46332490234375,-0.487105234375,-23.90258395870779,5.408241166570722,-44.97498776386451
1694135521.3208156,0.0025224999999999996,0.0027997460937499996,1.00444603515625,0.53593314453125,1.4862130859375,0.83278001953125,-22.327149032316186,6.415666023992596,-46.19834340253638
1694135521.340827,0.0018511132812499996,0.0036542382812499996,1.0042629296875,-0.14308296875000004,0.2349923828125,0.7183391015625,-23.39877055502127,5.8312258696957215,-46.204884257760995
1694135521.3608224,0.0019731835937499996,0.0026776757812499996,1.00566673828125,-0.14308296875000004,2.1575998046875,-0.15904126953124997,-21.91728150497244,6.399957390203534,-46.05657273993872
1694135521.380819,0.0018511132812499996,0.0023114648437499996,1.0042629296875,0.12394583984374996,1.79901826171875,0.9319621484375,-22.18740894320486,6.517845183660564,-45.364358890939705
1694135521.4008377,0.0030107812499999996,0.0023114648437499996,1.00481224609375,0.12394583984374996,-0.51268828125,-0.8075398046875,-23.038912221281034,4.995130660223065,-45.21351801496314
1694135521.4208393,0.0030718164062499996,0.0019452539062499996,1.006338125,0.12394583984374996,1.776130078125,-0.75413404296875,-21.75652599667166,6.6392095806332225,-46.28354436945533
1694135521.4408605,0.0030718164062499996,0.0020673242187499996,1.00469017578125,0.88688529296875,1.96686494140625,-0.94486890625,-23.09813056381033,5.483968192937909,-45.40732966449928
1694135521.4608698,0.0025224999999999996,0.0017621484374999996,1.00505638671875,1.13102591796875,-1.73339140625,-0.83042798828125,-21.959827069547636,6.957805074285565,-46.127085687692635
1694135521.480853,-0.01523873046875,-0.01148248046875,1.00420189453125,0.56645072265625,0.2349923828125,3.602250234375,-21.983728964078885,6.627954094305096,-47.282792460397715
1694135521.5008514,-0.01169869140625,-0.055000546875,1.004629140625,0.5130449609375,1.72272431640625,16.6790324609375,-22.14809939425467,6.026132817449628,-45.916089155344004
1694135521.5208578,-0.00480171875,-0.16968560546875,1.00481224609375,0.32231009765624996,1.55487763671875,17.1367961328125,-21.818735467863064,6.350930706121503,-46.24858477594947
1694135521.5408554,0.01271537109375,-0.34919,0.9998683984375,-0.6771405859375,-0.5584646484375,13.7188273828125,-23.53426579025076,5.761978755437909,-45.3657604131565
1694135521.5608516,0.0143633203125,-0.48877740234375,1.000722890625,-0.7076581640625,-1.20696318359375,1.37446703125,-21.832913562833767,6.6643184644222835,-46.35409657966041
1694135521.58086,0.0170488671875,-0.5161821875,0.99895287109375,-1.17305123046875,0.83771455078125,-13.20530591796875,-22.07465887814138,6.568444600652753,-45.82437883039283
1694135521.6008813,0.03236869140625,-0.50757623046875,0.99919701171875,1.08524955078125,-1.1382986328125,-26.9916218359375,-22.89685691622732,6.368739018621502,-45.39826029487037
1694135521.62087,0.03883841796875,-0.47888970703125,0.99901390625,-1.82917916015625,2.7069162109375,-38.47386060546875,-23.291190244352318,7.073777735906659,-46.78563635468482
1694135521.640872,-0.02414986328125,-0.41510796875,1.00102806640625,2.22965873046875,2.325446484375,-43.42533765625,-25.701548258024197,5.501144117742596,-46.31316156525612
1694135521.6608753,-0.0550946875,-0.354805234375,1.00481224609375,-0.34144722656250004,1.63117158203125,-40.85423169921875,-25.25014725936697,6.432580027410564,-47.09538971552466
1694135521.6809173,0.0027666406249999996,-0.29859185546875,1.000722890625,-0.29567085937500004,0.8148263671875,-45.50816236328125,-26.59523143551443,5.465657782293377,-46.02095400788306
1694135521.7008915,0.0387773828125,-0.24420953125,1.000722890625,-2.004655234375,0.92926728515625,-27.983443125,-26.84169204183767,2.57069064264494,-45.105668690134046
1694135521.7208867,-0.0283612890625,-0.02295708984375,1.006093984375,0.97843802734375,1.84479462890625,-36.9403523046875,-27.856684588468532,5.044737805730877,-46.50644995966529
1694135521.7408953,-0.1016034765625,0.2979047265625,1.00884056640625,-2.5692304296875,1.55487763671875,-48.83457837890625,-30.446305546232203,3.6037219107113465,-46.61467571686744
1694135521.7608974,-0.06577583984375,0.50707220703125,1.005117421875,0.93266166015625,-1.42058623046875,-34.4684284765625,-29.385411875455837,3.6256130093441588,-46.744312482004155
1694135521.7809007,-0.0998944921875,0.556815859375,1.00505638671875,0.29179251953124996,0.33417451171875,-27.0526569921875,-30.963438604337675,2.0387356182308776,-46.080691265817634
1694135521.8009465,-0.0207929296875,0.477714296875,1.0137844140625,-0.53218208984375,-0.39061796875,-16.20365796875,-30.344699705533962,2.773531607000409,-47.27731161371803
1694135521.8209236,-0.00028511718750000043,0.512870546875,1.00200462890625,-0.73054634765625,-1.4739919921875,-12.4347370703125,-30.856421571500757,2.3094150547543153,-48.075743260324465
1694135521.8409166,0.00044730468749999957,0.5889203515625,1.00090599609375,-0.48640572265625004,-0.03203642578124999,-4.088179453125,-32.21693399996756,0.5164332837582213,-46.52965764228248
1694135521.8609147,-0.04477974609375,0.63585638671875,1.0096340234375,-0.16597115234375004,0.616462109375,6.98970140625,-31.101917434415796,1.5796559307308775,-48.000177859445564
1694135521.8809204,-0.08628365234375,0.45970892578125,1.00737572265625,0.12394583984374996,-0.24565947265625,7.1575480859375,-32.29384180538748,0.7294815230160339,-47.44564615314673
1694135521.9009213,0.0038652734374999996,0.29466986328125,0.99803734375,-1.29512154296875,1.05133759765625,-0.83042798828125,-31.06194546737478,2.000100062078534,-48.236053453805916
1694135521.9209232,-0.09952828125,0.424979921875,1.00407982421875,0.14683402343749996,1.409919140625,5.1433879296875,-30.68251114694021,1.8259417998715026,-46.585176289621344
1694135521.940946,-0.08835884765625,0.53990912109375,1.00615501953125,0.97843802734375,-1.641838671875,15.6109172265625,-33.92847588863943,1.3271427022152527,-47.02667231037329
1694135521.960931,-0.08286568359375,0.64427923828125,1.00725365234375,0.6656328515625,0.37995087890625,30.152543203125,-31.023947884733182,2.476428062566815,-47.5568403440647
1694135521.9809372,-0.10410591796875,0.6914594140625,1.00896263671875,-0.57795845703125,1.07422578125,41.65004076171875,-31.980119200040797,2.4751889395199402,-47.2551809567356
1694135522.00094,-0.0994062109375,0.61766791015625,1.0067043359375,2.39750541015625,0.09003388671875001,47.4407512109375,-29.715807080778106,3.689558844305097,-46.7957584756565
1694135522.0209465,-0.10178658203125,0.45946478515625,1.00322533203125,1.718489296875,0.28076875,44.862015859375,-28.494831421476345,4.534893447820721,-46.959881172433846
1694135522.0409615,-0.06528755859375,0.23973822265625,1.0018215234375,0.49015677734374996,-0.176994921875,35.2337199609375,-27.865327323209744,4.469332484441814,-46.366789278268804
1694135522.0609505,-0.06821724609375,0.16301703125,1.00884056640625,2.10758841796875,0.97504365234375,34.92091478515625,-26.832938649869902,5.973580159734784,-46.24003985639381
1694135522.0809524,-0.085612265625,0.22154974609375,0.9995021875,0.95554984375,-2.435295703125,46.83802904296875,-26.418310815275174,5.623107169988691,-45.544607029611576
1694135522.1009583,-0.0618085546875,0.1248090234375,1.0034084375,0.44438041015624996,0.494391796875,50.9197551171875,-23.88747287924002,6.482565229559002,-46.52408193732642
1694135522.120961,-0.0561933203125,-0.05493951171875,0.99162865234375,2.10758841796875,0.63935029296875,47.66200365234375,-23.77143713131521,5.671164200750409,-45.73082323151588
1694135522.1409655,-0.07236763671875,-0.33631158203125,0.99577904296875,3.92338431640625,-1.16118681640625,42.4053508203125,-22.638751269254666,6.3354234824886895,-45.004680414255134
1694135522.1609762,-0.0083417578125,-0.50867486328125,0.99626732421875,2.38224662109375,-0.27617705078125,24.72804369140625,-21.44135383785818,6.805201113836345,-47.45797057673072
1694135522.1809735,0.02296927734375,-0.5485308203125,0.98143578125,1.108137734375,-1.5960623046875,10.9569865625,-22.043760730924586,5.438323342840253,-45.946974138132084
1694135522.2009752,0.0712480859375,-0.45465875,0.99577904296875,2.22965873046875,5.01862275390625,5.921586171875,-20.76270811056326,6.218094468816815,-46.24536751996803
1694135522.2209783,0.00978568359375,-0.398018125,0.99870873046875,4.2361894921875,1.2420724609375,12.09376634765625,-21.621660186368924,5.226507357000409,-45.03959745527076
1694135522.2409863,-0.0388593359375,-0.4315874609375,0.990468984375,3.03837455078125,1.14289033203125,5.4638225,-20.449000277189235,6.680661348211347,-46.10228368280982
1694135522.2609928,0.027913125,-0.53870416015625,0.9891262109375,0.42149222656249996,2.63825166015625,-3.94322095703125,-19.892896108732202,6.516500729559002,-46.101919064523685
1694135522.2809887,0.05336478515625,-0.56995416015625,0.98564720703125,-1.93599068359375,-0.4363943359375,-10.91648755859375,-21.359987010465602,5.189062289617596,-45.60922203998756
1694135522.3009949,0.0900469140625,-0.563301328125,0.9901027734375,2.91630423828125,-1.519768359375,-0.12089429687499997,-19.608811668912868,6.345819049871503,-46.447641123239514
1694135522.3209965,0.01564505859375,-0.23737359375,0.99809837890625,0.58933890625,0.13581025390625,14.3291789453125,-21.571491945646265,5.388903174383221,-45.82614856806373
1694135522.340996,0.02895072265625,-0.208320859375,0.99284935546875,0.9402910546875,0.92926728515625,16.10682787109375,-19.639312629362088,6.677932468816815,-45.64803733210181
1694135522.3610075,-0.0033979101562500004,-0.354316953125,0.98930931640625,0.27653373046874996,-2.29033720703125,12.64308275390625,-19.84648724300955,6.3787953530941595,-46.02671951447486
1694135522.3810098,0.01674369140625,-0.515205625,0.98930931640625,-2.0504316015625,-0.27617705078125,1.53468431640625,-23.485274380949,5.564639765691815,-46.125196729196546
1694135522.4010472,-0.0140790625,-0.621895078125,0.98827171875,-1.516373984375,-1.6876150390625,-7.45274244140625,-20.220553097013454,6.214439515203534,-47.043481676462164
1694135522.4210281,-0.0009565039062500004,-0.49713921875,0.99419212890625,-2.2945722265625,-3.68651640625,1.88563646484375,-21.24757318527029,5.624120008367596,-46.361237493112554
1694135522.4410203,0.04835990234375,-0.46509576171875,0.9965725,-1.82917916015625,1.07422578125,7.16517748046875,-20.5443678719158,6.725484929266034,-45.554516184762946
1694135522.4610455,-0.0012616796875000004,-0.3559038671875,0.99590111328125,-1.34089791015625,-1.11541044921875,7.86708177734375,-20.647062742765407,6.127687768621502,-45.80462755683325
1694135522.4810297,-0.0918378515625,-0.297188046875,0.99510765625,0.05528128906249996,1.4556955078125,-6.956831796875,-20.98156950985525,6.9663603433285335,-46.830299827585215
1694135522.5021007,-0.0893964453125,-0.28424859375,0.99309349609375,-1.638444296875,1.55487763671875,-16.56223951171875,-21.993849578214625,7.129372273992597,-46.38716191449927
1694135522.5211601,-0.05930611328125,-0.15045953125,0.99638939453125,-0.02101265625000004,1.654059765625,-12.9687946875,-23.679965458707787,6.122640231512127,-46.059368762399664
1694135522.5410736,0.00648978515625,-0.08741021484375,0.9888820703125,0.863997109375,1.43280732421875,4.37281908203125,-23.43692025948904,7.188317385809002,-46.44777349115943
1694135522.5610971,0.041340859375,0.08361029296875,1.0013332421875,-2.5387128515625,-1.83257353515625,-26.52622876953125,-25.18973503915213,6.424054093328534,-46.073748860177986
1694135522.5810673,-0.09116646484375,0.21459173828125,1.00029564453125,-4.13325630859375,-0.2532888671875,-34.2853230078125,-25.025444682218534,6.949397537664471,-47.12745568708228
1694135522.6010573,-0.07139107421875,0.3799359765625,1.00584984375,0.009504921874999961,1.64643037109375,-34.97959791015625,-26.553632544279075,6.458581889715253,-47.13045205512427
1694135522.6210673,-0.0901288671875,0.49913763671875,1.002676015625,0.61222708984375,-1.3519216796875,-27.19761548828125,-28.28584251058767,5.251412163641033,-46.782855436349855
1694135522.6410642,-0.0310468359375,0.56993841796875,1.00444603515625,-1.1959394140625,0.06714570312500001,-13.7164753515625,-27.944954160001732,6.164636276922284,-47.003231317209234
1694135522.6610725,0.042317421875,0.59923529296875,1.0037746484375,0.15446341796874996,0.013739941406250011,-4.01951490234375,-28.753720027433374,4.388304794500408,-46.68042369098853
1694135522.6810975,0.0490312890625,0.62682318359375,1.00053978515625,0.39860404296874996,-1.3824392578125,2.83931078125,-27.978875194791776,5.740144933172283,-47.466750826730724
1694135522.7011192,-0.00010201171875000043,0.55577826171875,0.9996242578125,0.47489798828124996,-2.24456083984375,4.700883046875,-28.59784095358084,5.52768161578947,-47.130116958200446
1694135522.7211244,0.0013628320312499996,0.48351263671875,1.00749779296875,-1.06623970703125,-1.3061453125,4.4109660546875,-28.951366120573027,4.153571879949627,-46.31632922797584
1694135522.741084,-0.00608345703125,0.3132855859375,0.99419212890625,0.17735160156249996,0.30365693359375,4.1363078515625,-28.27453929842947,4.847989991766034,-46.604634313058845
1694135522.7610846,-0.07163521484375,0.2781293359375,0.99901390625,-0.21937691406250004,-1.885979296875,7.50087083984375,-29.339502769742946,4.0710275918636905,-46.453640708932866
1694135522.7810864,-0.02830025390625,0.35106634765625,0.9991359765625,-0.600846640625,-0.73394072265625,9.156449453125,-28.081757438688257,5.297446148504315,-48.38882820539283
1694135522.8010864,0.01210501953125,0.397147890625,1.0020656640625,0.986067421875,0.95215546875,1.86274828125,-28.268495172819122,4.920956289617596,-47.628519157663334
1694135522.8210802,0.039387734375,0.5020062890625,1.002187734375,0.9402910546875,-0.87889921875,-1.3263386328125,-27.47084402889822,4.345880264715253,-46.04842113508033
1694135522.8410985,0.0551348046875,0.54796576171875,0.9995021875,1.5201250390625,0.39520966796875,-6.0870808203125,-27.427984859342555,5.42339968951994,-47.37950523761939
1694135522.861129,0.08754447265625,0.5898969140625,1.0079250390625,-0.53218208984375,0.30365693359375,0.29872240234375,-27.49720100082205,4.518839348211346,-46.85901573005103
1694135522.8811138,0.0522051171875,0.59130072265625,1.0037746484375,1.77189505859375,1.0894845703125,16.51118578125,-26.44240683016775,6.1515892105160335,-47.60933024811744
1694135522.9011111,0.0353594140625,0.51805853515625,1.00829125,2.74845755859375,-0.10833037109374999,25.7427531640625,-25.04041136788748,5.186384447820721,-45.38781980243873
1694135522.9211159,0.0017900781249999996,0.472831484375,1.00115013671875,2.96208060546875,1.9134591796875,41.23805345703125,-25.24807440255545,6.478904016180097,-45.70961292365455
1694135522.9411178,-0.01945015625,0.34337591796875,1.00212669921875,2.06181205078125,2.18048798828125,35.82118333984375,-23.4454512214031,6.840664957098065,-45.893662529123304
1694135522.961137,0.03688529296875,0.08104681640625,1.00554466796875,4.678694375,-2.0233083984375,34.1961223046875,-23.53985982308767,5.9017576265316585,-45.18838322467994
1694135522.9811208,0.0138750390625,0.01500677734375,0.99089623046875,1.7947832421875,-0.61187041015625,44.800980703125,-21.9534330314617,7.1185071841488465,-46.122556235666266
1694135523.001145,-0.0994062109375,-0.0592730078125,0.99803734375,-0.02101265625000004,4.77448212890625,52.68214525390625,-21.347567854459744,6.185145596258222,-45.75568938166236
1694135523.0211358,-0.1260175390625,-0.27454400390625,0.9932766015625,5.90702689453125,0.1586984375,42.237504140625,-20.257810209073998,6.983516400945721,-46.07944384235572
1694135523.0411386,-0.06992623046875,-0.4992144140625,1.00481224609375,4.97624076171875,0.97504365234375,22.5994426171875,-19.84325693465994,7.200619968816815,-46.41800346674537
1694135523.0611353,-0.02659126953125,-0.6332476171875,0.9808254296875,-1.24934517578125,2.1118234375,-0.24296460937499997,-19.752808559415797,5.990316044012127,-45.309400804147714
1694135523.0811515,-0.05460640625,-0.56604791015625,0.9774074609375,-1.882584921875,2.05841767578125,-2.562300546875,-19.156079205411892,7.145891041570721,-46.53598809723854
1694135523.101143,-0.10190865234375,-0.555000546875,1.0035305078125,0.9097734765625,-2.0538259765625,1.038773671875,-20.33893091525076,6.409114465398845,-45.49313855536841
1694135523.1211448,-0.0835370703125,-0.575996640625,0.99870873046875,2.06181205078125,-0.2532888671875,-5.98789869140625,-19.152993409513453,7.403962415594158,-47.292692363718025
1694135523.1411505,-0.013834921875,-0.65100884765625,0.9857082421875,-1.17305123046875,0.03662812500000001,-25.4352253515625,-19.170381392911892,6.6644850274105645,-46.03345099299049
1694135523.161154,0.0163164453125,-0.65003228515625,0.98161888671875,-2.615006796875,-0.970451953125,-34.47605787109375,-18.84932058773611,5.67780197076994,-45.8157651989231
1694135523.1811569,-0.01230904296875,-0.36695123046875,0.9942531640625,2.7713457421875,-0.9246755859375,-32.44663892578125,-19.2530277436199,6.4535588960629084,-47.13748262958717
1694135523.2011583,0.0053301171875,-0.16870904296875,0.99803734375,-0.02101265625000004,1.93634736328125,-6.61350904296875,-20.179116550992944,5.4325151109066585,-46.14891191999244
1694135523.221161,0.00398734375,-0.2309038671875,0.9897365625,0.20023978515624996,0.34943330078125,5.71559251953125,-19.40326189938162,6.441926767644939,-46.74828993842505
1694135523.2411654,0.01869681640625,-0.41785455078125,0.99120140625,-1.3180097265625,-2.984612109375,9.5074016015625,-19.868623273282985,5.914902066473065,-46.4310787980442
1694135523.2611682,-0.046061484375,-0.5675737890625,0.98845482421875,-1.5621503515625,-2.74810087890625,-1.07456861328125,-19.86782774105642,5.756053946355879,-45.678659953439706
1694135523.281173,-0.08811470703125,-0.64557671875,0.99431419921875,0.58933890625,-1.7181326171875,-17.6532429296875,-19.648152917448026,6.686256356023847,-46.62335761762427
1694135523.3011737,-0.09739205078125,-0.65143609375,0.99223900390625,1.57353080078125,-4.16716826171875,-25.8929890234375,-21.19482208810232,5.447310157293376,-45.44702977521705
1694135523.321183,-0.0713300390625,-0.6225054296875,0.988515859375,-3.591569296875,-2.22167265625,-29.71531568359375,-20.156483035001735,6.475852184148845,-46.76758750275611
1694135523.341183,-0.04246041015625,-0.6040728125,0.98686791015625,-6.36103951171875,-2.1758962890625,-41.35777173828125,-20.8098717279949,5.426345769598065,-45.21348677179908
1694135523.3611832,-0.01999947265625,-0.49671197265625,0.993886953125,-1.70710884765625,-0.75682890625,-38.90110669921875,-20.907877359464624,5.962185756902753,-45.650524608224856
1694135523.3811915,-0.042399375,-0.3153765234375,0.99175072265625,-2.95832955078125,-1.74102080078125,-21.3763874609375,-21.57501441525076,6.296073934637127,-45.93447325776099
1694135523.4011946,-0.09904,-0.1583941015625,1.00554466796875,0.34519828124999996,-0.299065234375,-26.427046640625,-23.674270992032984,5.2020775278988465,-45.66371250837135
1694135523.4211988,-0.1204023046875,-0.0568316015625,1.00053978515625,0.03239310546874996,-1.3519216796875,-36.99375806640625,-24.142826636564234,6.622067830144939,-47.07135965326881
1694135523.4412084,-0.08664986328125,0.05321478515625,0.99022484375,-1.11964546875,-1.32903349609375,-40.49565015625,-26.00254704842947,5.468228914617596,-46.91066674543189
1694135523.4612274,-0.042155234375,0.2679975,1.005117421875,-4.66731392578125,-0.48980009765625,-37.66514478515625,-25.385663954557398,6.409648154851972,-46.453258367868415
1694135523.4812937,-0.01377388671875,0.39611029296875,1.0010891015625,-1.882584921875,-2.679436328125,-34.2853230078125,-26.707821354093532,5.568014030340253,-46.18692702472877
1694135523.5012324,0.010579140625,0.50194525390625,1.011465078125,-2.4471601171875,-0.03203642578124999,-31.05808912109375,-28.21950246993826,4.002549399480877,-46.71647680365943
1694135523.5212123,-0.03074166015625,0.7002484765625,0.998525625,-0.63136421875,-0.421135546875,-25.35893140625,-28.329977964689235,4.153445919012128,-46.86160600629615
1694135523.5413096,-0.07316109375,0.78527044921875,1.00517845703125,-2.6607831640625,1.52436005859375,-25.79380689453125,-29.922297994352324,2.377599581609784,-46.92391139557837
1694135523.5612342,0.01283744140625,0.74388861328125,1.00627708984375,-1.38667427734375,3.3783029296875,-13.47996412109375,-28.767144648038848,2.9415368023129087,-47.46629627375221
1694135523.581228,0.005208046875,0.68956732421875,0.99999046875,1.45146048828125,0.4028390625,-4.75193677734375,-29.230178292081817,2.7209678560238464,-46.82979501972389
1694135523.601242,0.0150957421875,0.63567328125,1.0053615625,-2.27168404296875,-0.5889822265625,0.9319621484375,-29.45493844247244,2.2660825606136905,-47.064216798288335
1694135523.621231,-0.013834921875,0.2686078515625,0.9975490625,-0.08967720703125004,1.86005341796875,-11.107222421875,-29.155251990568143,2.9203890513363464,-47.85860224225806
1694135523.6412294,-0.0007733984375000004,0.37938666015625,1.00237083984375,-1.5621503515625,-0.543205859375,-13.96824537109375,-30.123266982999784,2.209537662664471,-47.193553407297124
1694135523.661233,0.0014238671874999996,0.47942328125,0.99553490234375,-0.03627144531250004,-0.6194998046875,-9.428755625,-29.044035103849392,2.947180438543378,-47.021577424020755
1694135523.6812437,0.0224199609375,0.50511908203125,0.9976711328125,2.62638724609375,-0.3448416015625,-8.18516431640625,-29.215826496671657,1.7802876079769718,-46.78873599238013
1694135523.7012527,0.07527640625,0.51085638671875,0.995351796875,-2.34034859375,-6.1889578125,-7.43748365234375,-28.731349409147242,3.18513491998869,-46.0429435155735
1694135523.721244,0.06752494140625,0.556815859375,0.9901027734375,5.63236869140625,-0.61187041015625,-4.9274128515625,-28.841236124601345,3.7480475152035337,-47.85756582758521
1694135523.741243,0.05299857421875,0.6303021875,1.01482201171875,1.4285723046875,1.287848828125,9.39296068359375,-28.82646997750662,3.382378488348065,-46.10967571125221
1694135523.761244,-0.0443525,0.640800234375,1.00847435546875,0.7877031640625,-0.5889822265625,24.537308828125,-28.17646481405447,4.632533380437909,-46.1471311898899
1694135523.7812538,-0.09006783203125,0.54930853515625,1.0025539453125,4.098860390625,-1.69524443359375,39.94105638671875,-27.36740684469412,4.053648352605878,-46.0577694756565
1694135523.8012528,-0.033854453125,0.42772650390625,1.002187734375,3.0460039453125,-1.5502859375,55.99330248046875,-25.99867356698416,5.459740389715252,-46.462965182809825
1694135523.8212578,-0.0906171484375,0.25499701171875,0.997304921875,2.94682181640625,-3.25164091796875,67.89515794921876,-24.46283482150076,5.9212496528988465,-46.882989939157476
1694135523.8412611,-0.08823677734375,-0.0029985937500000004,0.9964504296875,0.39860404296874996,-1.092522265625,65.24012865234376,-23.439952033781033,5.341267716375409,-45.805424598703375
1694135523.8612745,-0.00913521484375,-0.2885210546875,0.9927883203125,0.44438041015624996,-1.69524443359375,51.43092455078125,-22.10719664144705,6.212395923406659,-46.428495879465096
1694135523.881269,-0.0149335546875,-0.32544732421875,0.98729515625,-0.31092964843750004,2.0355294921875,43.6718303125,-21.85942399325369,5.354866104070721,-46.389087080636976
1694135523.9012709,-0.16404244140625,-0.40760064453125,0.989492421875,2.8476396875,-0.3448416015625,39.86476244140625,-20.921085122404076,6.300379328680096,-45.75710776740455
1694135523.9212744,-0.11814400390625,-0.60816216796875,0.9832668359375,0.863997109375,-1.336662890625,28.46644701171875,-20.078861182828884,5.496103624090253,-46.63254094220923
1694135523.9412777,-0.09702583984375,-0.70569634765625,0.9903469140625,1.20731986328125,-0.81023466796875,7.4932414453125,-20.46353391634939,5.009816635809003,-46.06409945685767
1694135523.9612865,-0.046061484375,-0.6576616796875,0.98076439453125,0.17735160156249996,0.97504365234375,-6.21678052734375,-19.594384213956815,5.648508667547284,-46.061627068429935
1694135523.9813023,-0.02073189453125,-0.61023736328125,0.983633046875,0.42149222656249996,-1.61895048828125,3.297074453125,-20.48034538082693,4.741535577703534,-45.36441270539283
1694135524.0012906,-0.0122480078125,-0.6164019140625,0.9869289453125,-0.18885933593750004,-0.2075125,10.1482707421875,-19.232489390226345,5.780147609441815,-46.20193468219947
1694135524.0212936,-0.03989693359375,-0.5727007421875,0.986806875,-0.33381783203125004,-0.01677763671874999,5.73085130859375,-18.98713907980154,5.761428202703534,-45.86644367206764
1694135524.0412939,-0.0491132421875,-0.425361875,0.98723412109375,-0.14308296875000004,0.05951630859375001,7.172806875,-18.781378456510527,5.399351746648846,-46.938526735666265
1694135524.061298,-0.100748984375,-0.24024224609375,0.995351796875,0.64274466796875,-0.61187041015625,19.68501390625,-19.18620922494314,6.546554817449627,-47.22125081232642
1694135524.0813007,-0.026041953125,-0.38452935546875,0.991445546875,0.10105765624999996,0.80719697265625,12.78041185546875,-19.82841083297537,5.65898650592619,-45.15798843158912
1694135524.1013122,-0.0287275,-0.461250546875,0.98876,-0.08967720703125004,-0.009148242187499989,9.97279466796875,-19.69748062594412,6.641832513250408,-46.24335611676978
1694135524.121308,-0.07236763671875,-0.52515435546875,0.9896144921875,1.6727129296875,-0.421135546875,10.3008586328125,-19.421584101530055,5.6620265928402524,-45.41848195905494
1694135524.1413774,-0.10972115234375,-0.601143125,0.98882103515625,0.49778617187499996,-1.9317556640625,10.0262004296875,-19.176605104215604,6.228107750066815,-46.22095844098853
1694135524.1613197,-0.06968208984375,-0.5399858984375,0.9857082421875,-1.4095624609375,-1.67235625,0.550492421875,-19.47173346944998,6.895451334539471,-47.77789568940162
1694135524.1813734,-0.0590009375,-0.49207330078125,0.995351796875,0.23075736328124996,-0.5889822265625,-2.14268384765625,-20.010381706754664,5.776511970281659,-45.967482874216074
1694135524.2013507,-0.111002890625,-0.4098589453125,0.9897365625,-2.24116646484375,-0.90178740234375,-5.51487623046875,-19.7898391243572,6.5166323135433775,-46.020771187448496
1694135524.2213285,-0.1136884375,-0.35651421875,0.9947414453125,-0.013383261718750039,3.7139962890625,-9.947554453125,-21.204558088712673,5.4894728076840025,-45.29984695258521
1694135524.2413564,-0.04905220703125,-0.2667925390625,0.990468984375,0.06291068359374996,1.76850068359375,-10.3290241796875,-20.730288867399196,7.0496248980160345,-46.29275119074439
1694135524.2613826,0.0034380273437499996,-0.2396929296875,0.9966945703125,4.098860390625,-1.428215625,-18.53062330078125,-21.937468905851343,7.345829777898846,-46.74018311591529
1694135524.2813568,0.0522051171875,-0.1704790625,0.99431419921875,0.03239310546874996,1.3336251953125,-31.24119458984375,-24.425826637907008,6.508965604559002,-45.417256724557866
1694135524.3014498,0.02711966796875,-0.06995416015625,0.9818019921875,-0.722916953125,0.22736298828125,-61.04160962890625,-24.468149029020292,7.1756699946957205,-47.281703109323495
1694135524.3213646,-0.00620552734375,0.18737005859375,1.00456810546875,-4.323991171875,-0.5889822265625,-68.18272291015624,-26.197648732023218,5.44624991608244,-45.81031064972877
1694135524.3413832,-0.05759712890625,0.4272992578125,0.99663353515625,0.39860404296874996,-2.48870146484375,-66.33640943359374,-25.98359970016287,5.738735002508221,-47.392517185739514
1694135524.3613625,-0.044108359375,0.56883978515625,1.00115013671875,-3.41609322265625,6.475837109375,-55.052534921875,-27.34420569650076,5.275744688055097,-46.00753596796607
1694135524.3813684,0.04762748046875,0.62487005859375,1.021718984375,0.17735160156249996,6.5521310546875,-41.55613599609375,-27.66039705184744,3.560653221258221,-46.58930776960181
1694135524.4013784,-0.00901314453125,0.62291693359375,0.99614525390625,5.96043265625,2.7069162109375,-33.7360066015625,-28.487393844083766,4.247671579656659,-47.68134859626197
1694135524.421376,-0.02024361328125,0.68236517578125,0.9749660546875,-3.43898140625,-1.23748076171875,-26.57963453125,-29.686688038907988,3.194155992742597,-45.69584675568579
1694135524.4413784,0.02351859375,0.629325625,0.9988918359375,-1.48585640625,-0.97808134765625,-14.5709675390625,-28.773803680143335,3.5755548931332215,-46.75991470636939
1694135524.461406,0.0214433984375,0.56273626953125,0.99944115234375,0.03239310546874996,0.58594453125,-4.55357251953125,-29.36707041207693,2.7373050957699405,-46.49905311701392
1694135524.4814034,0.02602103515625,0.49211859375,0.99516869140625,-2.83625923828125,-0.39824736328125,1.88563646484375,-29.349563967863062,2.375079597723065,-47.1942330694065
1694135524.5013988,0.01625541015625,0.349784609375,0.9916896875,-1.02046333984375,0.22736298828125,-6.7889851171875,-29.028662091154082,3.298829567937909,-46.864713139719
1694135524.521417,-0.02146431640625,0.314140078125,1.0008449609375,-0.87550484375,-0.82549345703125,-4.6222370703125,-30.23963767721365,2.684329092840253,-46.60732895673561
1694135524.5414124,0.01576712890625,0.44786810546875,0.99944115234375,-2.75996529296875,-0.73394072265625,-1.127974375,-29.47471394393728,3.0708665122738465,-47.110876633127205
1694135524.5613933,0.0458574609375,0.605888125,0.999258046875,-2.1419843359375,-1.7486501953125,5.372269765625,-29.174197985929467,2.5550361973324405,-45.61783383039283
1694135524.5813842,0.05946830078125,0.67748236328125,1.00041771484375,-4.6444257421875,-2.65654814453125,16.41200365234375,-28.539587354459744,2.8736360674496275,-46.09658539179419
1694135524.6013877,0.03407767578125,0.69811224609375,1.0006008203125,-0.89839302734375,-4.41130888671875,21.2566691796875,-28.28885411849783,4.079115152898846,-47.614992716989505
1694135524.6213894,0.012043984375,0.63176703125,0.99736595703125,-0.28804146484375004,-7.92083037109375,32.32692064453125,-27.7269920248699,3.9231630850277526,-45.676639025583256
1694135524.6413937,-0.00596138671875,0.5287396875,0.993886953125,4.953352578125,-4.815666796875,50.10340990234375,-26.79428122006033,5.3935227320004095,-46.48973122748755
1694135524.6613991,-0.073649375,0.3806683984375,1.018056875,3.366438515625,0.05951630859375001,63.4624797265625,-26.594692129240016,5.14152466217619,-45.960966456613534
1694135524.6814,-0.097086875,0.14635443359375,1.00292015625,5.49503958984375,-1.90886748046875,66.529496328125,-24.70803043917654,6.075091468816815,-46.41004567475318
1694135524.7014074,-0.10093208984375,-0.06153130859375,0.9905910546875,1.6269365625,-3.3050466796875,56.61891283203125,-22.65273212374685,6.344654087469158,-46.53060594782447
1694135524.7214084,0.0024004296874999996,-0.19324517578125,0.99468041015625,2.0694414453125,-1.23748076171875,53.5747844140625,-22.528205940885524,6.063414493719159,-45.70300195160865
1694135524.7414124,0.09145072265625,-0.25745416015625,0.98747826171875,1.77189505859375,-4.2205740234375,47.05165208984375,-20.833565964445096,6.868591340887127,-46.99683510798072
1694135524.7614396,-0.07822701171875,-0.30774712890625,0.9883937890625,-1.14253365234375,1.93634736328125,45.75465501953125,-21.34981311813162,6.045046196844158,-45.40553472712134
1694135524.7814236,-0.20225044921875,-0.339180234375,0.99980736328125,1.72611869140625,0.58594453125,56.4434367578125,-19.754657811246854,7.02571897467619,-45.77883773322486
1694135524.8014388,-0.1250409765625,-0.49646783203125,0.98760033203125,2.48142875,1.287848828125,44.53395189453125,-19.365835322599395,7.0911128281918145,-46.85651113874244
1694135524.8214273,-0.08262154296875,-0.6532671484375,0.9852199609375,0.84110892578125,0.05951630859375001,28.26808275390625,-18.639589304166773,6.13051274811369,-45.81075987397193
1694135524.841431,-0.09714791015625,-0.65784478515625,0.98442650390625,-1.8978437109375,-1.28325712890625,6.74556078125,-18.379023007413842,6.864662672918378,-47.021841798898684
1694135524.8614326,-0.12009712890625,-0.573799375,0.99120140625,-0.6771405859375,0.68512666015625,6.37172044921875,-18.884149848966576,6.25212283405119,-46.49479850544166
1694135524.8814366,-0.1238202734375,-0.52295708984375,0.98924828125,0.55119193359375,-0.90178740234375,11.26979173828125,-17.969879825773223,6.79184292389494,-46.71702274933814
1694135524.9014428,-0.07956978515625,-0.6439898046875,0.988027578125,3.1680742578125,-3.3965994140625,-1.48655591796875,-18.219825629728298,6.225597128973065,-46.44216499030494
1694135524.9214416,-0.04062935546875,-0.4052202734375,0.992422109375,-0.63136421875,-0.009148242187499989,-1.71543775390625,-18.136388473356227,6.724139228582439,-46.463157700265874
1694135524.9414454,-0.09702583984375,-0.46277642578125,0.98918724609375,-0.43299996093750004,-2.44292509765625,-13.76225171875,-18.25787833334158,6.527301000555097,-46.31798530231666
1694135524.9614491,-0.07065865234375,-0.50147271484375,0.9886379296875,-1.4400800390625,-2.36663115234375,-19.14097486328125,-19.236811924406034,5.760616254461347,-46.57960531391333
1694135524.9814665,-0.08066841796875,-0.48352837890625,0.99223900390625,-1.821549765625,-0.665276171875,-21.4679401953125,-18.616670314908962,6.774310224187909,-46.079437952463145
1694135525.0014646,-0.0922040625,-0.47315240234375,0.99663353515625,-1.4400800390625,0.83008515625,-18.5840290625,-19.65346153634451,5.800274495672284,-46.18342222638892
1694135525.0214603,-0.10117623046875,-0.449043515625,0.9893703515625,0.009504921874999961,-0.44402373046875,-14.04453931640625,-19.01263945394705,6.614431897527752,-45.36472784967994
1694135525.0414648,-0.0991620703125,-0.48590875,0.99345970703125,-1.1959394140625,-1.28325712890625,-18.36277662109375,-19.367682300138455,6.96395201325041,-46.518385424509034
1694135525.061469,-0.09464546875,-0.5006792578125,0.98454857421875,-0.73054634765625,1.02082001953125,-26.9611042578125,-21.370387644132595,6.10785332233244,-46.498017229196535
1694135525.0814738,-0.07456490234375,-0.43952203125,0.9910793359375,-3.07277046875,0.3265451171875,-34.00303541015625,-21.155518127775174,7.095999993230878,-46.837408601022716
1694135525.1014905,-0.06785103515625,-0.261299375,0.9942531640625,-0.53218208984375,-0.97808134765625,-43.1964558203125,-23.10973150961111,6.3461102163754095,-44.82560980195044
1694135525.1214855,-0.0630292578125,-0.05274224609375,0.9965725,0.25364554687499996,0.34943330078125,-44.7833698828125,-22.335240022428493,7.335610731023847,-46.84631575544166
1694135525.1414855,-0.01584908203125,0.00731634765625,0.987051015625,-2.48530708984375,1.64643037109375,-52.28306470703125,-23.945804336637476,7.271348065496502,-46.52449368378639
1694135525.1614857,-0.0199384375,0.09667181640625,1.00395775390625,-2.859147421875,2.630622265625,-64.146773203125,-26.677411627897246,6.029549456609784,-46.2526332713108
1694135525.181489,0.0060625390625,0.252128359375,0.9918117578125,-2.56160103515625,1.11237275390625,-67.0306843359375,-26.400796405729274,6.621035719305096,-46.516895363473886
1694135525.2014906,0.0131426171875,0.408378359375,1.00224876953125,-0.7686933203125,1.57013642578125,-55.8612507421875,-28.616817667814235,4.5695578565121275,-46.48071133185768
1694135525.2214932,0.0128984765625,0.59679388671875,1.0093898828125,-2.72944771484375,1.837165234375,-41.18992505859375,-27.89423986569021,5.299664329656659,-47.49274443952368
1694135525.241498,-0.05100533203125,0.6509320703125,0.99699974609375,-0.62373482421875,0.80719697265625,-33.59104810546875,-28.114059201749786,3.8057086782894713,-46.9134670895481
1694135525.261502,0.01173880859375,0.59716009765625,0.99992943359375,-0.7992108984375,2.48566376953125,-32.3321980078125,-29.08188584042166,2.4982630684261906,-46.44036827472876
1694135525.2815053,0.02882865234375,0.53710150390625,0.99565697265625,-2.14961373046875,0.616462109375,-27.281538828125,-29.515199284269315,3.387569360418378,-47.308508297189704
1694135525.301507,0.0304766015625,0.55333685546875,0.99699974609375,-1.11964546875,-1.214592578125,-18.36277662109375,-30.37501678524588,2.0497217036800963,-46.09914563862037
1694135525.3215322,0.004231484375,0.5625531640625,1.00584984375,0.47489798828124996,-0.421135546875,-4.23313794921875,-29.439389589933377,2.986110912664471,-48.43731943927955
1694135525.3415132,-0.03342720703125,0.50536322265625,1.0008449609375,-0.18885933593750004,-0.53557646484375,3.2818156640625,-29.86421013033865,1.7110005703793152,-46.103035434274666
1694135525.3615274,-0.0043134375,0.32512640625,0.99480248046875,-0.33381783203125004,-0.35247099609375,0.19191087890625003,-29.874556564420683,2.919476710516034,-46.843868092966076
1694135525.3815293,-0.06260201171875,0.38597845703125,0.998281484375,-2.24116646484375,-2.130119921875,0.336869375,-29.60525157211111,2.9889190230160336,-47.051065052682866
1694135525.4015458,0.010090859375,0.45836615234375,1.00127220703125,-3.24824654296875,-1.2603689453125,-0.8075398046875,-30.49179600521658,2.3139842476254087,-46.03134650959205
1694135525.4215376,0.036458046875,0.54210638671875,0.9996242578125,-0.35670601562500004,-1.3824392578125,5.21205248046875,-29.23345820834158,3.321229502508221,-46.982107199045174
1694135525.4415374,0.042317421875,0.61925482421875,1.0001125390625,-0.9517987890625,-4.67070830078125,11.08668626953125,-29.768954130460717,3.317087499578534,-46.802935308420174
1694135525.4615386,0.01723197265625,0.60326361328125,0.998769765625,2.0389238671875,-5.39550078125,16.3433391015625,-28.426174871305445,3.836391982000409,-46.24075066120338
1694135525.4815435,0.012043984375,0.52452826171875,1.00481224609375,-0.87550484375,0.68512666015625,17.3809367578125,-28.07734912399099,4.505495402410565,-47.310626887399664
1694135525.5015652,0.0295000390625,0.41161322265625,1.0067043359375,4.24381888671875,0.77667939453125,22.2942668359375,-27.660052846647247,4.53634896686369,-46.57442063739966
1694135525.5215485,0.0484209375,0.4097211328125,0.99797630859375,2.1152178125,-1.5960623046875,46.62440599609375,-26.219826582853297,5.885933536199627,-47.29769235090064
1694135525.5415528,0.05702689453125,0.3773725,1.00066185546875,3.3359209375,0.68512666015625,76.53163255859376,-26.255262769010525,5.116715108953533,-46.473139126901614
1694135525.56156,-0.02866646484375,0.1248090234375,0.99797630859375,0.5740801171875,-0.08544218749999999,81.09401048828126,-24.526625058195094,6.774478454656658,-47.734974471506106
1694135525.58156,-0.09958931640625,-0.23096490234375,0.998281484375,-0.47877632812500004,-2.44292509765625,66.17091478515626,-22.7959967625408,6.780195109930096,-45.91996169867896
1694135525.601562,-0.09678169921875,-0.43433404296875,0.9849758203125,2.8018633203125,2.89765107421875,52.0489055078125,-22.0213269076824,6.0697179121761895,-46.21511653888892
1694135525.621565,-0.11326119140625,-0.4162066015625,0.9883937890625,1.7947832421875,-0.35247099609375,54.5513469140625,-20.957959954557396,7.146543296453534,-46.43651960138892
1694135525.6415687,-0.09495064453125,-0.40345025390625,0.989980703125,1.69560111328125,-2.6336599609375,57.069047109375,-21.123190356168728,6.216294730535566,-46.5006519332981
1694135525.6615767,-0.10630318359375,-0.51319146484375,0.98552513671875,0.35282767578124996,-0.73394072265625,41.66529955078125,-19.553139648893335,6.720588996160565,-47.54158790668677
1694135525.6815834,-0.1293134375,-0.64514947265625,0.98540306640625,-0.77632271484375,1.2115548828125,27.0855266015625,-19.13666348385427,6.402430055242597,-45.425362822580325
1694135525.7015827,-0.0941571875,-0.68262505859375,0.98857689453125,-0.97468697265625,-0.73394072265625,6.78370775390625,-18.925142914640407,5.791791593816814,-46.19984956501197
1694135525.7216003,-0.07737251953125,-0.64929986328125,0.9893703515625,-1.02046333984375,-2.15300810546875,-0.5176228125,-18.811190085172633,6.615139677312909,-47.060504008371346
1694135525.74159,-0.1089276953125,-0.4975054296875,0.98729515625,0.40623343749999996,1.23444306640625,0.4589396875,-20.041692852750757,6.236775240789471,-45.79280068390845
1694135525.7615914,-0.08127876953125,-0.2501909765625,0.99358177734375,1.45146048828125,0.08240449218750001,15.2294475,-18.424251668058375,7.010485534246502,-47.005630926095954
1694135525.781602,-0.05637642578125,-0.38098931640625,0.98930931640625,0.47489798828124996,-1.26799833984375,6.05128587890625,-19.4737743731365,6.094609216375408,-45.988270327219
1694135525.801604,-0.076823203125,-0.543770078125,0.98882103515625,-0.99757515625,-0.5889822265625,-7.54429517578125,-18.65506133846853,7.091021819402752,-44.69430032770728
1694135525.8216057,-0.08195015625,-0.56189751953125,0.98906517578125,-1.26460396484375,0.013739941406250011,-18.65269361328125,-18.993358199430446,7.03682229498869,-46.4495847211399
1694135525.841605,-0.112711875,-0.4882280859375,0.98784447265625,0.07816947265624996,0.013739941406250011,-15.7001179296875,-20.246459663297635,6.3205717124691585,-46.165189230783454
1694135525.8616147,-0.07700630859375,-0.44733453125,0.9910793359375,0.84110892578125,-0.10833037109374999,-7.475630625,-19.63210632565115,7.079935305242596,-46.57153972968482
1694135525.8816133,-0.1340741796875,-0.49829888671875,0.990713125,1.5811601953125,1.06659638671875,-14.33445630859375,-20.562416134000756,6.06952275592619,-46.07664363300513
1694135525.901618,-0.1221112890625,-0.605781796875,0.98857689453125,0.88688529296875,0.83008515625,-34.32346998046875,-19.94110793270681,7.245361231023846,-46.13404533014869
1694135525.9216216,-0.102702109375,-0.5348589453125,0.98882103515625,-2.92781197265625,-0.44402373046875,-51.6803425390625,-21.293975125699976,6.93725414313322,-45.937068699411384
1694135525.9416218,-0.07413765625,-0.3384478125,0.9871730859375,-1.38667427734375,2.966315625,-55.53318677734375,-24.023956473478297,6.709431355535565,-45.67491471308326
1694135525.9616287,-0.06748482421875,-0.0670855078125,0.9988918359375,-0.844987265625,1.35651337890625,-42.631880625,-23.228804620450955,7.450863777898847,-45.81516817670631
1694135525.981627,-0.01340767578125,0.06810736328125,1.002676015625,-1.87495552734375,-0.81023466796875,-42.70054517578125,-25.564614139493923,6.459893374090252,-45.29856314582252
1694135526.0017161,-0.00773140625,0.1621625390625,0.9930324609375,-2.80574166015625,-1.26799833984375,-60.23289380859375,-25.59033493917654,7.4115671509457215,-47.9551780603733
1694135526.0216532,-0.03757759765625,0.30919623046875,0.99577904296875,-0.08967720703125004,1.73798310546875,-69.7467487890625,-26.967961292325953,6.255488261785565,-46.82690789618873
1694135526.0416553,0.0025224999999999996,0.4685590234375,1.0006008203125,-1.455338828125,-0.4974294921875,-68.65574537109374,-27.87548895516775,3.5541683228207215,-47.68041508124732
1694135526.0616584,0.0043535546875,0.5972211328125,1.00334740234375,-0.62373482421875,-1.214592578125,-56.41819654296875,-28.90184999899099,4.227622635809003,-46.800841447458254
1694135526.0816796,0.034993203125,0.66881537109375,0.9952297265625,-2.43953072265625,2.77558076171875,-43.37193189453125,-30.241168834806423,2.4037505069027527,-46.9506769509983
1694135526.1016767,0.02675345703125,0.64757513671875,0.998525625,0.37571585937499996,-0.2075125,-31.56162916015625,-29.364726988859157,3.25918440826994,-47.083736972360605
1694135526.121668,0.051106484375,0.5648725,1.0013332421875,-0.13545357421875004,-0.7110525390625,-21.81126294921875,-30.155266361417755,2.5970728447933777,-46.78632757685279
1694135526.1416624,0.02547171875,0.50121283203125,1.0015773828125,-0.57795845703125,1.73798310546875,-16.7071980078125,-29.80828090365408,1.809559671453534,-47.36846695112037
1694135526.1616614,0.027180703125,0.46672796875,0.9996242578125,1.23783744140625,1.25733125,-9.85600171875,-30.03700920272635,1.8822079341488465,-47.522657268869395
1694135526.1816661,-0.01487251953125,0.43370794921875,0.991933828125,-0.21174751953125004,-0.82549345703125,-5.064741953125,-30.7088760248699,1.264967970281659,-47.03122320160865
1694135526.201674,-0.008952109375,0.3135297265625,0.99834251953125,-0.28041207031250004,-0.59661162109375,-11.4276569921875,-30.13022522030447,2.1446801026058777,-47.66102742865943
1694135526.2216716,-0.06626412109375,0.44896673828125,0.99150658203125,-3.17195259765625,-0.421135546875,-7.26963697265625,-30.55871072201346,0.9562167227230651,-47.44088117951392
1694135526.2416794,-0.0742597265625,0.47747015625,0.9979152734375,-3.713639609375,-2.07671416015625,-6.19389234375,-30.53731804513357,2.125413793035565,-46.000585458078376
1694135526.2616806,-0.09910103515625,0.56029486328125,1.00969505859375,-3.69075142578125,-0.9246755859375,-9.36772046875,-29.874490163785914,2.5237604292660336,-47.89328335407447
1694135526.2816906,-0.03605171875,0.5942914453125,1.0054836328125,0.8487383203125,0.6317208984375,-4.9274128515625,-30.835097866178494,1.905786480535565,-46.830791428659424
1694135526.301687,-0.02427193359375,0.63927435546875,0.998525625,-1.48585640625,0.39520966796875,8.82838548828125,-29.71352576315115,3.1878201362972836,-47.163857178537356
1694135526.3217127,0.0030718164062499996,0.65966009765625,1.00212669921875,0.10868705078124996,-2.0843435546875,33.7383586328125,-29.364672848600367,2.9226483814144713,-47.0232137433567
1694135526.3416939,-0.00437447265625,0.65367865234375,1.01042748046875,0.29942191406249996,-1.86309111328125,50.66798509765625,-28.395854105070093,3.929012507879315,-44.764996719919196
1694135526.361739,-0.06406685546875,0.5991742578125,0.998281484375,4.465071328125,0.94452607421875,79.3316203515625,-27.02570622848318,5.208173192449627,-47.206177206125254
1694135526.3817074,-0.1570233984375,0.43627142578125,1.0069484765625,5.66288626953125,-1.7181326171875,100.709183828125,-25.757093851896265,5.384825332586345,-44.93226174494362
1694135526.4017084,-0.1103925390625,0.06346869140625,1.00151634765625,6.86833060546875,1.31073701171875,91.62257494140626,-23.697038856412867,6.577034107000408,-47.0656404686985
1694135526.4217103,-0.0166425390625,-0.35193658203125,0.98869896484375,1.72611869140625,-3.594963671875,69.64991869140626,-22.99667243124197,6.320305372625409,-46.29159319062232
1694135526.4417148,-0.02659126953125,-0.476387265625,0.9888820703125,4.39640677734375,0.34943330078125,61.82215990234375,-21.371302677213652,7.183679039617596,-47.03802076691626
1694135526.4617152,-0.01548287109375,-0.4552691015625,0.99846458984375,4.64054740234375,0.22736298828125,64.38563646484376,-20.232676362150173,6.895070315984784,-45.75424466413307
1694135526.4817178,-0.0933026953125,-0.397773984375,0.99809837890625,2.756086953125,2.14997041015625,69.46681322265626,-20.418370556974388,6.070656479070721,-45.71993249225807
1694135526.5017233,-0.0962323828125,-0.52173638671875,0.98332787109375,2.511946328125,0.921637890625,49.73719896484375,-19.595122054288844,6.997866841375409,-46.372679559885015
1694135526.5217474,-0.07273384765625,-0.71424126953125,0.98857689453125,-3.0269941015625,3.56903779296875,35.02772630859375,-20.107007499723416,6.106190812078534,-46.75108277131079
1694135526.5417328,-0.1133222265625,-0.72119927734375,0.98039818359375,-3.31691109375,0.27313935546875,12.2845012109375,-19.114318933439236,6.94448177936369,-46.68743973224829
1694135526.5617323,-0.0954999609375,-0.745918515625,0.99419212890625,-3.225358359375,-1.57317412109375,8.66053880859375,-19.07004024423025,5.91659143951994,-45.81654932892799
1694135526.581738,-0.0969648046875,-0.619941953125,0.9837551171875,1.03947318359375,0.31891572265625,2.17555345703125,-18.82207017757986,6.633567869695721,-46.93523635541724
1694135526.6017516,-0.06028267578125,-0.57239556640625,0.99004173828125,5.1517168359375,-2.1758962890625,7.447465078125,-19.25667663937185,7.102278495184003,-47.53276035614966
1694135526.6217499,-0.07212349609375,-0.39283013671875,0.9932766015625,0.23075736328124996,-1.092522265625,2.320511953125,-19.727230386320095,6.376353927312909,-46.931675747995364
1694135526.6417499,-0.06809517578125,-0.5678179296875,0.99211693359375,-0.844987265625,-0.61187041015625,-10.47398267578125,-18.77940830782888,7.389023313543378,-46.93334602961158
1694135526.6617513,-0.112711875,-0.61878228515625,0.98503685546875,-1.0433515234375,0.10529267578125001,-21.4679401953125,-19.03049249630545,5.911083127019941,-45.6668762758274
1694135526.6817536,-0.15342232421875,-0.5376665625,0.99022484375,-1.47822701171875,2.9205392578125,-19.50718580078125,-18.980404210172633,7.249443380437908,-45.96555230744361
1694135526.7017605,-0.1177167578125,-0.405830625,0.996328359375,-0.722916953125,0.46387421875,-2.65385328125,-19.438428440519314,7.215980643621503,-46.94284203339576
1694135526.7217617,-0.12180611328125,-0.3578569921875,0.98589134765625,-0.6466230078125,-3.5034109375,-6.74320875,-20.704699220426537,6.285964048406658,-45.80053250422095
1694135526.741766,-0.042155234375,-0.4984819921875,0.99590111328125,-0.82209908203125,1.81427705078125,-26.26682935546875,-20.118763078947048,7.45943156061369,-46.89035888178443
1694135526.7617693,-0.04044625,-0.575996640625,0.99217796875,0.25364554687499996,0.677497265625,-43.1659382421875,-21.45949437423513,6.758162496648846,-46.46972375519751
1694135526.781773,-0.0425214453125,-0.34143853515625,0.99272728515625,-1.943620078125,1.32599580078125,-38.22971998046875,-21.072327997770287,7.4421221055355655,-46.24390161725807
1694135526.8017824,0.0075273828125,-0.038887265625,1.002676015625,-0.82209908203125,2.630622265625,-26.55674634765625,-21.94457600997732,7.510332143621502,-46.82768664435767
1694135526.8217833,0.02126029296875,0.313163515625,0.999258046875,-0.21174751953125004,-0.543205859375,-32.1796101171875,-26.136966926115015,6.354775150945722,-45.895214414865485
1694135526.8417833,-0.0824384375,0.45543646484375,0.99614525390625,-1.11964546875,1.90582978515625,-34.12510572265625,-24.228533830900176,7.00758002936369,-46.928290703805914
1694135526.8617866,0.05812552734375,0.3635785546875,1.0037746484375,-0.25752388671875004,6.0180734375,-42.24278150390625,-26.172125739225365,5.984098537176189,-46.7166320973606
1694135526.8817902,0.05019095703125,0.38378119140625,0.98869896484375,-0.50166451171875,2.48566376953125,-43.455855234375,-25.51232945419119,6.414058906805096,-47.704663196359625
1694135526.901793,0.07289603515625,0.4307172265625,1.00041771484375,1.28361380859375,-0.10833037109374999,-37.89402662109375,-26.174222136075954,5.614639211980878,-46.7464479357395
1694135526.921787,0.075032265625,0.51622748046875,0.9901027734375,-1.821549765625,2.57721650390625,-25.6488483984375,-26.395325484708763,5.244967230535565,-46.95013967072486
1694135526.941806,0.07252982421875,0.54845404296875,0.98735619140625,-2.8744062109375,-2.801506640625,-3.68382154296875,-27.388281378629667,5.737739075262127,-47.1978736352024
1694135526.9618094,0.0773516015625,0.4878461328125,1.00481224609375,-1.47822701171875,-1.67235625,21.67628587890625,-28.52129875399588,5.011474006902752,-46.338568774972906
1694135526.9818134,0.0255937890625,0.39574408203125,0.99834251953125,0.6503740625,-1.3824392578125,32.34217943359375,-27.56314852194021,6.0423794961605655,-48.03838976899146
1694135527.001805,-0.04526802734375,0.28563666015625,0.9969387109375,0.20786917968749996,0.27313935546875,33.8909465234375,-28.13201801302908,5.117752752996502,-46.17934212433814
1694135527.0218356,-0.0845136328125,0.1394574609375,0.99761009765625,1.8253008203125,0.60883271484375,21.03541673828125,-27.305250355070097,6.115630811590252,-46.75485042035864
1694135527.0418189,-0.06479927734375,0.01537298828125,0.99736595703125,2.77897513671875,1.715094921875,15.64906419921875,-27.00261789315603,6.017791346258221,-46.793917253854744
1694135527.0618203,-0.0286054296875,-0.01197076171875,0.9923000390625,2.53483451171875,0.97504365234375,5.616410390625,-27.743732437711696,5.597158249578534,-46.334561834787365
1694135527.081822,0.0143633203125,0.02147650390625,0.95244408203125,-9.65693794921875,-4.86907255859375,-16.31809888671875,-27.277132245450954,6.25509350983244,-47.07035152741431
1694135527.101826,0.076985390625,0.0354535546875,1.01140404296875,-2.89729439453125,-0.39824736328125,-23.96275220703125,-28.35391106796072,5.271411226629315,-45.94704693647193
1694135527.121829,0.0133867578125,0.0400922265625,1.00823021484375,-0.30330025390625004,0.799567578125,-12.8314655859375,-27.098527187101343,6.296869524480877,-47.28857855341529
1694135527.141845,-0.050211875,0.0142133203125,0.99602318359375,-0.18885933593750004,-1.40532744140625,0.58101,-27.300364974576933,6.134164382879315,-47.67315319086646
1694135527.1618357,-0.006022421875,0.0001752343749999996,0.9965725,0.42912162109374996,0.89874970703125,-0.43369947265625,-28.315478105192163,5.303564993230877,-46.07428354059791
1694135527.1818438,0.0038652734374999996,0.0016400781249999996,0.99663353515625,0.009504921874999961,0.2044748046875,0.9472209375,-27.509466579679472,6.257609753973065,-47.31327387934303
1694135527.2018566,0.00032523437499999957,0.0012738671874999996,0.99651146484375,0.23075736328124996,0.89874970703125,0.3521281640625,-28.38502601351736,5.242792054754315,-46.41630175080299
1694135527.2218475,0.0012407617187499996,0.0023724999999999996,0.99504662109375,0.10868705078124996,-0.47454130859375,1.87037767578125,-27.58023080636404,6.204336303777753,-47.81619776557349
1694135527.2418525,0.0009966210937499996,0.0022504296874999996,0.995840078125,0.32993949218749996,1.593024609375,-0.059859140624999974,-27.198924674772243,5.7594062925472835,-46.187928599069586
1694135527.261853,0.0008135156249999996,0.0013959374999999996,0.99504662109375,0.48252738281249996,1.1810373046875,-1.7230671484375,-27.586189210782987,4.6936667705746276,-46.17922153620338
1694135527.2818537,0.0010576562499999996,0.0021283593749999996,0.994619375,-0.18122994140625004,0.4180978515625,0.39790453125,-27.379662496793724,6.2695811153011896,-48.516968059885016
1694135527.3018634,0.00014212890624999957,0.0018231835937499996,0.99608421875,-0.600846640625,1.470954296875,-0.07511792968749997,-28.09934058248709,5.231576491766035,-47.26212655524634
1694135527.3218641,0.00026419921874999957,0.0019452539062499996,0.99748802734375,0.25364554687499996,1.7913888671875,-2.0587605078125,-27.238572915861113,5.919477303289471,-46.99807439618873
1694135527.3418708,0.0008745507812499996,0.0020062890624999996,0.99736595703125,-0.08967720703125004,1.64643037109375,3.03004564453125,-26.984437929166774,5.071374533758221,-47.681582904123296
1694135527.3618689,0.0006914453124999996,0.0026776757812499996,0.9974269921875,-0.21174751953125004,-0.4669119140625,0.9929973046875,-27.299078806364044,2.594874698797284,-46.257500065622324
1694135527.381876,0.00044730468749999957,0.0023724999999999996,0.99797630859375,-0.05915962890625004,0.60883271484375,-0.81516919921875,-27.061299381681422,5.466396101629314,-47.997621899972906
1694135527.401889,0.0006914453124999996,0.0018231835937499996,0.997793203125,-0.13545357421875004,0.73090302734375,-2.928511484375,-28.141829613859155,5.5427666719418145,-46.289675027658454
1694135527.4218886,0.0011186914062499996,0.0018231835937499996,0.997793203125,-0.13545357421875004,0.85297333984375,0.024064199218750026,-27.08453407223318,6.228458665105878,-46.872591509958255
1694135527.4418895,-0.00010201171875000043,0.0021283593749999996,0.99846458984375,0.10868705078124996,1.715094921875,-1.08982740234375,-27.57452168636892,5.314471868719158,-47.54803875531959
1694135527.461889,0.0011797265624999996,0.0020062890624999996,0.99919701171875,0.25364554687499996,1.57013642578125,-1.92906080078125,-27.178864874967555,6.528592912664472,-47.28787132697486
1694135527.4818923,0.0005083398437499996,0.0021283593749999996,0.99895287109375,0.23075736328124996,0.27313935546875,1.527054921875,-27.38449711068533,6.266128839422285,-47.65666727997779
1694135527.5018973,0.0006304101562499996,0.0024335351562499996,0.99870873046875,0.10868705078124996,1.06659638671875,-1.47129712890625,-27.912854347745878,4.9963172622738465,-46.83742370514869
1694135527.521902,8.109374999999957e-05,0.0019452539062499996,0.99956322265625,0.25364554687499996,1.6235421875,-1.71543775390625,-27.15403802059744,6.2597805322933775,-47.59710145148658
1694135527.54191,2.005859374999957e-05,0.0021283593749999996,0.99999046875,0.05528128906249996,1.57013642578125,-0.16667066406249997,-28.21209641415213,5.442715874090252,-47.9030730817356
1694135527.561912,0.0008135156249999996,0.0020062890624999996,1.0003566796875,0.40623343749999996,0.006110546875000011,0.0011760156250000264,-27.190814498990996,5.955710089422284,-46.15052639252662
1694135527.5819113,0.00014212890624999957,0.0022504296874999996,0.99992943359375,0.06291068359374996,0.921637890625,-1.39500318359375,-27.534769772672636,6.180235161199628,-48.3194110883274
1694135527.6019168,0.0005083398437499996,0.0019452539062499996,1.00017357421875,0.06291068359374996,0.99030244140625,-1.10508619140625,-28.37913970077322,4.62646007623869,-45.91919169428443
1694135527.6219213,0.00038626953124999957,0.0022504296874999996,0.9996242578125,0.04002249999999996,0.56305634765625,0.29872240234375,-27.05984486434744,5.945100667059002,-47.135312906442635
1694135527.6419485,0.0009966210937499996,0.0024335351562499996,0.99931908203125,-0.10493599609375004,0.250251171875,1.00062669921875,-28.350198045865994,5.389539091863689,-47.40874711432838
1694135527.6619241,0.0009966210937499996,0.0026166406249999996,0.99834251953125,-0.08967720703125004,1.7913888671875,0.550492421875,-27.544401847135525,6.342438925359783,-47.30579100055884
1694135527.6819284,0.0006914453124999996,0.0025556054687499996,0.99919701171875,-0.25752388671875004,1.7608712890625,0.37501634765625,-27.086211703702908,6.2671185278988455,-45.85352776496314
1694135527.7019377,0.0009355859374999996,0.0024335351562499996,0.99895287109375,0.35282767578124996,-0.2075125,0.20716966796875003,-27.526027644132594,5.790131360906658,-47.109561601999275
1694135527.7219353,0.0012407617187499996,0.0026166406249999996,0.99883080078125,-0.54744087890625,0.46387421875,0.75648607421875,-27.46047069735525,6.51959986530119,-48.64322239948463
1694135527.7419531,0.0006304101562499996,0.0023724999999999996,0.99968529296875,0.30705130859374996,0.15106904296875,0.855668203125,-27.789083110807404,5.317637916570721,-47.26325550446509
1694135527.7619417,0.0005693749999999996,0.0028607812499999996,0.99980736328125,0.03239310546874996,0.85297333984375,2.10688890625,-27.46341308016775,6.0143353096371275,-46.832060395090096
1694135527.7819464,0.00032523437499999957,0.0026166406249999996,1.00029564453125,-0.31092964843750004,0.70801484375,-0.7770222265625,-27.48562581002615,5.122346868230878,-46.80489798090553
1694135527.801963,0.0008135156249999996,0.0021893945312499996,1.00078392578125,0.009504921874999961,1.26496064453125,-1.37974439453125,-27.0368918418865,6.2038305918636905,-45.78154228132057
1694135527.8220048,0.00014212890624999957,0.0022504296874999996,0.99968529296875,0.42912162109374996,0.83008515625,0.23768724609375003,-27.278188417325957,6.4155486631527525,-47.85725015973853
1694135527.8419602,0.0006914453124999996,0.0026166406249999996,1.00127220703125,0.08579886718749996,0.34180390625,0.34449876953125,-28.118791123746856,5.269586550848065,-46.77076841303443
1694135527.861981,0.00038626953124999957,0.0023114648437499996,1.0014553125,0.55119193359375,0.7537912109375,0.489457265625,-27.146233484464624,6.180871267644941,-46.43521057612037
1694135527.8819695,0.0008745507812499996,0.0015180078124999996,1.00029564453125,-0.05915962890625004,1.6235421875,1.33632005859375,-27.56515907894705,5.487659204168377,-47.280235619577404
1694135527.9019701,0.0008135156249999996,0.0023114648437499996,0.9998683984375,0.28416312499999996,0.2960275390625,0.7793742578125,-26.96919159615896,6.070365691473064,-50.259627051950446
1694135527.9219723,0.0009966210937499996,0.0024335351562499996,0.99919701171875,0.08579886718749996,0.82245576171875,-1.2958210546875,-27.03500329733084,6.333207689519941,-47.484600973215095
1694135527.941969,0.0008745507812499996,0.0021893945312499996,1.00090599609375,-0.11256539062500004,2.0050119140625,-1.158491953125,-28.262648287687284,5.298079740789472,-47.23199027240943
1694135527.9619823,8.109374999999957e-05,0.0028607812499999996,0.999258046875,0.009504921874999961,1.2115548828125,2.20607103515625,-27.203320729093534,6.492176784246503,-48.376068407175055
1694135527.9819875,0.0010576562499999996,0.0023114648437499996,0.99858666015625,0.13157523437499996,0.60883271484375,0.031693593750000026,-28.81310422372244,5.612146595769939,-47.26176954865454
1694135528.001987,0.0017290429687499996,0.0030438867187499996,0.99968529296875,0.25364554687499996,1.18866669921875,-2.592818125,-27.386375787809353,5.987692964422283,-48.045988324533454
1694135528.0219975,0.00044730468749999957,0.0022504296874999996,0.99901390625,0.08579886718749996,0.8758615234375,0.611527578125,-27.589796480192163,5.970823786687909,-47.85199293891334
1694135528.0420153,0.0011797265624999996,0.0025556054687499996,0.99919701171875,-0.21174751953125004,-1.2908865234375,-0.5023640234375,-27.63438534139822,5.637950829656659,-47.11532177082252
1694135528.0620067,0.0006914453124999996,0.0023114648437499996,0.99822044921875,-0.15834175781250004,0.10529267578125001,-0.35740552734375,-27.561023858488063,6.2885100694027525,-47.48709169294166
1694135528.0820065,-0.00028511718750000043,0.0030438867187499996,0.99809837890625,-0.13545357421875004,1.501471875,-0.16667066406249997,-27.922872388639433,5.712623321844159,-46.83427386567115
1694135528.102011,0.0005693749999999996,0.0023724999999999996,0.99858666015625,0.18498099609374996,1.11237275390625,0.25294603515625,-27.61019828646658,5.84783426764494,-48.14501219062232
1694135528.1220102,-0.00010201171875000043,0.0017621484374999996,0.99919701171875,0.20786917968749996,0.2044748046875,-0.45658765625,-27.710486394254666,5.448245405340253,-47.612353201974855
1694135528.1420245,0.0025224999999999996,0.0032269921874999996,0.9957180078125,-0.013383261718750039,0.921637890625,-0.73887525390625,-27.34899089669607,5.382220473699627,-46.964155150217046
1694135528.1620216,-0.0019330664062500004,0.0015180078124999996,0.99992943359375,0.49778617187499996,1.2115548828125,0.46656908203125,-27.621566918546655,6.205476875555097,-48.13773407953833
1694135528.182058,0.0021562890624999996,0.0032269921874999996,0.9988918359375,0.10868705078124996,-0.35247099609375,1.73304857421875,-28.839607788175567,4.851901859441815,-46.88483100739478
1694135528.2020252,-0.00016304687500000043,0.0017011132812499996,0.99846458984375,0.10868705078124996,0.8453439453125,0.63441576171875,-27.548365641447052,6.076859315984784,-47.97095034687232
1694135528.2220247,0.0017900781249999996,0.0027387109374999996,0.998281484375,-0.33381783203125004,0.94452607421875,1.0235148828125,-27.73001700875662,5.409777631902752,-46.80799858161353
1694135528.2420316,0.00026419921874999957,0.0024335351562499996,0.99895287109375,0.35282767578124996,0.31891572265625,-0.2887409765625,-27.857291648282985,5.859433973211345,-47.27594022138404
1694135528.2620327,8.109374999999957e-05,0.0032269921874999996,0.99797630859375,0.45200980468749996,1.64643037109375,1.9390422265625,-27.19262671615408,5.907779067449628,-47.50182339667701
1694135528.2820377,0.0006914453124999996,0.0026166406249999996,0.99761009765625,0.42912162109374996,2.14997041015625,-0.5023640234375,-28.40498453365896,5.409561214910564,-47.88031839936255
1694135528.3020399,-4.097656250000043e-05,0.0021893945312499996,0.9986476953125,0.39860404296874996,0.80719697265625,1.03114427734375,-27.608333281949974,5.654076028875409,-48.492109929025645
1694135528.3220408,0.0008135156249999996,0.0018842187499999996,0.99931908203125,0.47489798828124996,-0.03966582031249999,1.8169719140625,-28.41277857662771,4.78026759186369,-46.06379961762428
1694135528.342043,0.00044730468749999957,0.0022504296874999996,0.99846458984375,-0.03627144531250004,1.95160615234375,-0.8380573828125,-28.17982033053396,5.615646295476971,-46.556959095163336
1694135528.362047,0.0006914453124999996,0.0024945703124999996,0.99901390625,0.52830375,0.4180978515625,1.13795580078125,-27.6782409701824,5.654626055730878,-47.77016269941138
1694135528.3820486,0.0005083398437499996,0.0026166406249999996,0.9986476953125,0.27653373046874996,-0.01677763671874999,1.71778978515625,-27.77370672445486,5.317669723699628,-46.987866000558846
1694135528.4020646,0.0006914453124999996,0.0020673242187499996,0.9981594140625,0.20786917968749996,1.287848828125,0.9929973046875,-27.24940806759451,5.588504456121504,-48.11921450129127
1694135528.422061,0.0006914453124999996,0.0030438867187499996,0.99834251953125,0.23075736328124996,2.43988740234375,0.5047160546875,-28.39243673653982,4.87531080280119,-47.01970936237525
1694135528.4420686,0.0010576562499999996,0.0024945703124999996,0.99895287109375,0.20786917968749996,1.6693185546875,2.5493937890625,-27.289594262052518,5.977861820867597,-47.23042987812232
1694135528.4620914,0.00020316406249999957,0.0024945703124999996,0.998769765625,0.87162650390625,0.2044748046875,-0.021712167968749974,-27.673947742643335,5.612760873601971,-47.13749758014868
1694135528.48208,0.0005083398437499996,0.0026776757812499996,0.998769765625,-0.37959419921875004,1.165778515625,-0.609175546875,-30.515041070280056,5.036691967351971,-47.709847173654545
1694135528.5020814,0.0007524804687499996,0.0026166406249999996,1.00005150390625,0.15446341796874996,1.57013642578125,1.47364916015625,-26.9660411075115,5.909919285223065,-47.88995913080787
