Time,ACCX,ACCY,ACCZ,GYRX,GYRY,GYRZ,MAGX,MAGY,MAGZ
1694133744.2507653,0.0020342187499999996,0.0030438867187499996,1.00530052734375,0.13920462890624996,-0.909416796875,0.32923998046875,-27.39702989388845,-7.320206255304278,-46.27412552570533
1694133744.2707155,0.0024004296874999996,0.0024335351562499996,1.00542259765625,-0.12782417968750004,-1.24511015625,-0.57865796875,-26.701484663541777,-6.2023999623355275,-46.35131408002662
1694133744.290702,0.0021562890624999996,0.0031049218749999996,1.0054836328125,0.19261039062499996,0.76905,-2.38682447265625,-27.171535217496857,-7.236840677179277,-45.759737173776614
1694133744.310673,0.0027056054687499996,0.0029828515624999996,1.00566673828125,0.18498099609374996,-0.01677763671874999,-1.83750806640625,-26.985231823453883,-6.231451295343341,-46.49007323285865
1694133744.3306708,0.0019731835937499996,0.0031659570312499996,1.00542259765625,-0.15071236328125004,-0.909416796875,-1.18138013671875,-27.09864093295095,-7.545824532159745,-46.22738274384498
1694133744.3506727,0.0027666406249999996,0.0024335351562499996,1.00591087890625,-0.15834175781250004,-0.21514189453125,-3.5541218359375,-26.612771746549587,-6.406318620050373,-46.938090817819585
1694133744.3706908,0.0022173242187499996,0.0029218164062499996,1.0054836328125,-0.5245526953125,0.86823212890625,-0.9906452734375,-26.798846081876736,-6.312147826593341,-46.725843126779544
1694133744.39068,0.0024614648437499996,0.0022504296874999996,1.00566673828125,0.30705130859374996,0.128180859375,1.61097826171875,-26.789904319913845,-6.916530257257403,-45.953966123971924
1694133744.4106843,0.0025224999999999996,0.0029828515624999996,1.00584984375,0.20786917968749996,-0.30669462890625,-2.806441171875,-26.676596802946072,-6.258540745538653,-46.188091933298104
1694133744.4306822,0.0027666406249999996,0.0023114648437499996,1.00517845703125,-0.32618843750000004,1.226813671875,-0.792281015625,-27.935810205289823,-7.183415712823809,-45.676753610300054
1694133744.450716,0.0024004296874999996,0.0027997460937499996,1.00505638671875,0.62748587890625,0.48676240234375,0.93959154296875,-26.587681800260526,-5.960638376398029,-46.14296060676002
1694133744.4706988,0.0022783593749999996,0.0023724999999999996,1.00481224609375,0.45200980468749996,-0.71868193359375,-1.18138013671875,-26.54422451693533,-6.616473321222248,-45.563530039377206
1694133744.490714,0.0020952539062499996,0.0029218164062499996,1.00420189453125,-0.50166451171875,1.40228974609375,-2.2113483984375,-26.653167932706815,-7.252715195245685,-46.3166665759983
1694133744.5107203,0.0025224999999999996,0.0025556054687499996,1.00432396484375,-0.28041207031250004,0.2960275390625,-0.5023640234375,-26.260128797452907,-6.404839410089434,-46.155274561471934
1694133744.530715,0.0023393945312499996,0.0032880273437499996,1.00444603515625,0.40623343749999996,-0.787346484375,-0.34214673828125,-28.168347605924588,-7.24122465032381,-45.687667999826424
1694133744.550719,0.0026445703124999996,0.0026166406249999996,1.00444603515625,-0.25752388671875004,-1.10015166015625,-2.00535474609375,-26.46553988046072,-6.30167622112459,-46.67761119953345
1694133744.5707102,0.0025224999999999996,0.0034100976562499996,1.004385,-0.44825875000000004,1.593024609375,-2.17320142578125,-27.371589054410915,-7.228286044855058,-45.3144970447483
1694133744.5907123,0.0026445703124999996,0.0024335351562499996,1.00469017578125,0.43675101562499996,0.3875802734375,-0.2582233984375,-26.728912147794706,-6.179256049249592,-45.28591536676978
1694133744.6107152,0.0024004296874999996,0.0028607812499999996,1.00359154296875,0.36045707031249996,0.15106904296875,0.2605754296875,-26.49215068539236,-6.204123614679279,-47.19819584150123
1694133744.6307487,0.0024614648437499996,0.0029218164062499996,1.00359154296875,-0.05915962890625004,1.15814912109375,0.32923998046875,-27.181009538419705,-7.011559770929278,-46.35455128864478
1694133744.6507359,0.0024004296874999996,0.0027387109374999996,1.0042629296875,0.74955619140625,1.44806611328125,-0.07511792968749997,-26.750370125944116,-6.141790414972245,-46.365833250802986
1694133744.6707282,0.0027666406249999996,0.0026166406249999996,1.0042629296875,0.30705130859374996,0.27313935546875,0.336869375,-27.67822823055838,-7.303395705499591,-46.33457455146216
1694133744.6907296,0.0029497460937499996,0.0030438867187499996,1.00383568359375,-0.8907636328125,-0.93230498046875,-0.8685749609375,-26.819034582120878,-6.177221862237872,-46.720416079050054
1694133744.7107306,0.0028276757812499996,0.0026166406249999996,1.00371361328125,-0.62373482421875,0.60883271484375,-1.65440259765625,-26.353923667570097,-6.0772209603824034,-46.629092046823494
1694133744.730731,0.0017900781249999996,0.0024335351562499996,1.003652578125,0.04002249999999996,-0.4058767578125,-1.2500446875,-27.514215246671654,-7.176594074640215,-45.74231047187232
1694133744.750739,0.0021562890624999996,0.0024945703124999996,1.0034084375,-0.10493599609375004,-0.8331228515625,-1.28819166015625,-26.698175381315213,-6.1150439374331835,-46.366557086740485
1694133744.770741,0.0019731835937499996,0.0028607812499999996,1.00371361328125,-0.20411812500000004,1.3031076171875,-1.86802564453125,-27.455036331754666,-6.67197617766756,-45.649079993600836
1694133744.7907422,0.0020952539062499996,0.0026166406249999996,1.00298119140625,0.18498099609374996,0.1739572265625,-0.31162916015625,-26.662416627897244,-6.202477925714435,-47.63553358002662
1694133744.8107617,0.0028276757812499996,0.0029828515624999996,1.00310326171875,0.6503740625,0.05188691406250001,-0.021712167968749974,-26.891115366788846,-6.974226315362873,-45.596762990060796
1694133744.8307548,0.0032549218749999996,0.0031049218749999996,1.00359154296875,0.50541556640625,0.7232736328125,-1.30345044921875,-26.719910791837673,-7.102341250909746,-45.88794336579322
1694133744.8507695,0.0028276757812499996,0.0031049218749999996,1.00322533203125,-0.37959419921875004,0.82245576171875,-1.59336744140625,-26.845784073575956,-6.278940162530841,-46.41801526777076
1694133744.8707583,0.0027666406249999996,0.0026166406249999996,1.00298119140625,0.55119193359375,-0.3753591796875,0.45131029296875,-27.873379640714628,-7.155730710382404,-45.95269319037818
1694133744.8907611,0.0021562890624999996,0.0029218164062499996,1.00273705078125,0.28416312499999996,-0.909416796875,-0.93723951171875,-26.48214386483572,-6.676524130792558,-46.867883916086186
1694133744.9107635,0.0026445703124999996,0.0023114648437499996,1.00249291015625,-0.05915962890625004,1.3031076171875,-1.05930982421875,-26.774837006193138,-7.466315323663654,-44.760052472360606
1694133744.9307644,0.0027666406249999996,0.0029828515624999996,1.00322533203125,0.13920462890624996,0.05188691406250001,0.77174486328125,-27.0246000450115,-6.488753137628498,-45.51579329487037
1694133744.9507682,0.0021562890624999996,0.0025556054687499996,1.00322533203125,0.30705130859374996,-0.18462431640625,-0.3802937109375,-27.012940367277128,-5.975659818292559,-46.43262352948951
1694133744.9707859,0.0017900781249999996,0.0028607812499999996,1.00298119140625,-0.05915962890625004,0.21973359375,-0.059859140624999974,-27.422173921110133,-6.80312933782381,-47.04233966425513
1694133744.990788,0.0020952539062499996,0.0025556054687499996,1.002431875,0.40623343749999996,1.013190625,-0.60154615234375,-26.526710166715606,-6.244765906183185,-46.623257674753184
1694133745.0107877,0.0025835351562499996,0.0026166406249999996,1.00285912109375,0.42912162109374996,0.24262177734375,0.58101,-27.266887178190213,-7.6028146727847465,-46.203382946237554
1694133745.0307891,0.0030718164062499996,0.0026776757812499996,1.002676015625,-0.03627144531250004,-0.55083525390625,-0.5023640234375,-26.482014005704862,-6.143469157648028,-46.37496635810279
1694133745.0507925,0.0019731835937499996,0.0023114648437499996,1.00285912109375,-0.32618843750000004,1.348883984375,-0.55576978515625,-26.67897425936697,-6.395352506769122,-47.2258567815647
1694133745.0707932,0.0024004296874999996,0.0023724999999999996,1.00310326171875,0.26127494140624996,0.27313935546875,0.06984056640625003,-27.056178755949002,-7.20231159221834,-45.874959236032474
1694133745.0907953,0.0027056054687499996,0.0022504296874999996,1.00224876953125,0.08579886718749996,-0.8636404296875,-0.2582233984375,-26.64377939230154,-6.666514000421467,-46.42238314740943
1694133745.1108189,0.0030107812499999996,0.0023114648437499996,1.002676015625,-0.71528755859375,1.03607880859375,-1.127974375,-27.427719326749784,-7.643940883722248,-45.45745031745337
1694133745.1308055,0.0023393945312499996,0.0028607812499999996,1.00322533203125,0.925032265625,0.70038544921875,-0.47947583984375,-26.282847053922634,-6.451969093194903,-47.013606390207286
1694133745.1508203,0.0027056054687499996,0.0025556054687499996,1.003164296875,-0.37196480468750004,0.91400849609375,-1.01353345703125,-26.42000428658865,-6.893353921319903,-46.14683207111548
1694133745.1708176,0.0026445703124999996,0.0024335351562499996,1.00310326171875,-0.10493599609375004,0.006110546875000011,-0.014082773437499974,-27.60926604073904,-7.726684109796466,-46.73993270905494
1694133745.1908107,0.0025224999999999996,0.0031659570312499996,1.00322533203125,-0.15834175781250004,1.0894845703125,-1.79173169921875,-26.774794339811304,-6.653152617608964,-46.81402287372779
1694133745.2108152,0.0025224999999999996,0.0029218164062499996,1.00371361328125,-0.10493599609375004,0.6317208984375,-1.524702890625,-27.570359132291774,-7.438221892999591,-46.53424322602271
1694133745.2308166,0.0022783593749999996,0.0027387109374999996,1.00322533203125,0.13920462890624996,-0.11595976562499999,-1.4941853125,-26.239500444059356,-6.524610507257403,-47.537663527170174
1694133745.2508202,0.0027666406249999996,0.0025556054687499996,1.00298119140625,-0.15834175781250004,0.921637890625,-2.34104810546875,-26.616883114103295,-7.163606204034747,-45.551801001169196
1694133745.2708275,0.0030718164062499996,0.0029828515624999996,1.003164296875,0.40623343749999996,0.9674142578125,-0.16667066406249997,-26.521975851774197,-7.6187652557925585,-45.783515104928966
1694133745.2908297,0.0024614648437499996,0.0025556054687499996,1.00273705078125,-0.12782417968750004,-0.451653125,-0.93723951171875,-26.338450221036894,-6.506355663507403,-45.89919432001685
1694133745.3108375,0.0023393945312499996,0.0025556054687499996,1.00346947265625,0.06291068359374996,0.19684541015625,-2.17320142578125,-27.381509054410916,-7.382642340753495,-45.72075500910377
1694133745.3308406,0.0022173242187499996,0.0025556054687499996,1.00292015625,0.20786917968749996,0.53253876953125,-1.6925495703125,-26.46912782931326,-6.066506159112872,-46.68787595636939
1694133745.3508418,0.0020952539062499996,0.0026776757812499996,1.00261498046875,0.11631644531249996,0.44098603515625,0.2910930078125,-26.796677577115993,-7.226364716241777,-46.73191538508033
1694133745.370843,0.0025224999999999996,0.0023724999999999996,1.00285912109375,-0.03627144531250004,0.799567578125,0.39027513671875,-26.585206302946073,-6.69448897063631,-45.51460356232642
1694133745.3908443,0.0019731835937499996,0.0029218164062499996,1.00273705078125,0.09342826171874996,0.36469208984375,-1.8756550390625,-26.717190542448026,-6.521208112237872,-46.68164865839576
1694133745.4108477,0.0023393945312499996,0.0025556054687499996,1.0030422265625,-0.005753867187500039,0.21973359375,-1.829878671875,-27.507154495450955,-7.5230697689761525,-46.25475645844459
1694133745.4308655,0.0022783593749999996,0.0031049218749999996,1.00249291015625,0.28416312499999996,0.09766328125000001,-1.47129712890625,-26.908650449796657,-6.835321144464435,-48.045899273630134
1694133745.4508603,0.0027056054687499996,0.0026166406249999996,1.0034084375,-0.20411812500000004,1.1352609375,-1.4789265234375,-27.655603660612087,-7.17871683440584,-45.81222572602272
1694133745.4708745,0.0022783593749999996,0.0029218164062499996,1.002676015625,0.20786917968749996,0.94452607421875,-0.7770222265625,-26.560291528654076,-6.779111739679278,-46.58881714948462
1694133745.4908795,0.0024004296874999996,0.0031659570312499996,1.00389671875,0.53593314453125,1.25733125,0.9014445703125,-26.501234566862088,-6.0736159027652175,-47.353051912179936
1694133745.5108774,0.0022783593749999996,0.0029218164062499996,1.0025539453125,-0.005753867187500039,-0.16936552734375,-1.15086255859375,-28.024120481779075,-7.759671638116778,-45.84739661994361
1694133745.5308845,0.0026445703124999996,0.0024335351562499996,1.00298119140625,-0.18122994140625004,1.25733125,-1.9824665625,-26.975923415616972,-6.347949067315996,-46.37023262763404
1694133745.5508783,0.0024004296874999996,0.0029828515624999996,1.00334740234375,0.70377982421875,1.0589669921875,-2.21897779296875,-27.434667324430446,-7.511208142023027,-45.39447007697486
1694133745.5708823,0.0021562890624999996,0.0027997460937499996,1.00389671875,-0.32618843750000004,0.433356640625,-0.792281015625,-26.414978866666775,-6.77039620940584,-46.12920232331275
1694133745.5908878,0.0020342187499999996,0.0027997460937499996,1.00310326171875,-0.44825875000000004,0.2655099609375,-2.53178296875,-26.552541192106226,-7.14770611174959,-45.574888804636
1694133745.6109166,0.0019121484374999996,0.0028607812499999996,1.00359154296875,0.16209281249999996,0.94452607421875,-1.63914380859375,-26.355898229948025,-7.90000049407381,-45.976321247262945
1694133745.6308918,0.0018511132812499996,0.0024335351562499996,1.00292015625,0.6045976953125,-0.01677763671874999,-0.70072828125,-26.255500682950956,-6.736316127862872,-46.989531900094974
1694133745.6508956,0.0024004296874999996,0.0027997460937499996,1.00346947265625,0.52830375,0.19684541015625,-0.70072828125,-27.93660683688162,-7.835514016046465,-45.74013503119849
1694133745.6709206,0.0028276757812499996,0.0024945703124999996,1.0030422265625,0.40623343749999996,-0.3295828125,1.1913615625,-26.568542724576933,-6.638343831964434,-46.69823584760474
1694133745.69091,0.0024614648437499996,0.0024945703124999996,1.0034084375,0.20786917968749996,0.27313935546875,-0.70835767578125,-26.517486305143333,-6.897070611749591,-45.6199083872776
1694133745.710913,0.0026445703124999996,0.0029828515624999996,1.0035305078125,0.19261039062499996,-1.22222197265625,-0.670210703125,-26.78063889132498,-7.566618680108965,-46.31554981415748
1694133745.7309103,0.0025224999999999996,0.0025556054687499996,1.003164296875,-0.05915962890625004,0.799567578125,-0.79991041015625,-26.60043382247732,-6.923880703546466,-46.16996355915259
1694133745.7509556,0.0030107812499999996,0.0027997460937499996,1.0035305078125,0.6045976953125,0.46387421875,-1.59336744140625,-27.495605237638454,-7.332576108331622,-45.827119002145764
1694133745.7709303,0.0024004296874999996,0.0034711328124999996,1.003164296875,0.33756888671874996,0.02899873046875001,-0.5939167578125,-26.519085216276146,-6.687086150323809,-46.672759091989505
1694133745.7909322,0.0020952539062499996,0.0021893945312499996,1.0030422265625,0.19261039062499996,0.5096505859375,-0.09037671874999997,-26.952205639127715,-7.467059302179278,-45.94284524494361
1694133745.8109264,0.0030107812499999996,0.0027997460937499996,1.00334740234375,0.6503740625,0.65460908203125,-1.47129712890625,-26.506433493009546,-7.101295448663652,-44.94571278986549
1694133745.830935,0.0025835351562499996,0.0034711328124999996,1.00310326171875,0.48252738281249996,1.03607880859375,0.054581777343750026,-27.206053131803497,-7.275266685968341,-46.54973198468971
1694133745.8509376,0.0026445703124999996,0.0024945703124999996,1.00261498046875,0.16209281249999996,-0.47454130859375,0.031693593750000026,-27.990648499723417,-7.363200174249591,-45.313846179513924
1694133745.8709452,0.0024614648437499996,0.0026776757812499996,1.0032863671875,-1.0586103125,0.60883271484375,-0.2887409765625,-26.463303503507596,-6.454013889581622,-45.799302144357675
1694133745.890939,0.0026445703124999996,0.0026776757812499996,1.002676015625,0.11631644531249996,1.03607880859375,-1.34922681640625,-27.730279562101348,-7.577335364679277,-45.279392977609625
1694133745.9109461,0.0033159570312499996,0.0020673242187499996,1.0030422265625,0.5740801171875,0.10529267578125001,0.039322988281250026,-27.022954780973414,-6.516764270440997,-43.862993075143805
1694133745.930946,0.0030718164062499996,0.0027997460937499996,1.00285912109375,0.01713431640624996,0.41046845703125,-1.71543775390625,-26.81483062740896,-6.308429889581621,-47.081685468698495
1694133745.9509506,0.0024614648437499996,0.0030438867187499996,1.00334740234375,0.13920462890624996,1.25733125,-1.62388501953125,-27.62845698238943,-7.875006372980058,-45.43761805390357
1694133745.9709525,0.0023393945312499996,0.0026166406249999996,1.00407982421875,0.52830375,0.982673046875,-0.25059400390625,-26.563015151700952,-7.0086275560855285,-45.91363707648658
1694133745.990956,0.0028276757812499996,0.0023724999999999996,1.00395775390625,0.26127494140624996,0.1739572265625,0.12324632812500003,-27.55525123226736,-7.544294831476153,-45.84134652533911
1694133746.0109918,0.0022173242187499996,0.0024945703124999996,1.00407982421875,0.26127494140624996,1.20392548828125,0.15376390625000003,-26.610199129728297,-6.943114590265214,-45.76778624897193
1694133746.03097,0.0022173242187499996,0.0024945703124999996,1.00383568359375,0.40623343749999996,1.03607880859375,0.7488566796875,-26.97947972421072,-6.587725079523027,-45.74048992719459
1694133746.0509694,0.0024614648437499996,0.0024945703124999996,1.00359154296875,0.26127494140624996,-0.01677763671874999,1.9390422265625,-26.772071503263454,-7.5141552797183415,-44.26477082624244
1694133746.0710187,0.0027666406249999996,0.0024335351562499996,1.00389671875,-0.005753867187500039,1.226813671875,-0.21244703124999997,-26.614919890714628,-6.349363395440998,-46.04598863886451
1694133746.090987,0.0025835351562499996,0.0023114648437499996,1.00371361328125,0.04002249999999996,1.66168916015625,-2.64622388671875,-27.52657333712576,-7.333784649835527,-45.03595155744361
1694133746.111011,0.0025835351562499996,0.0027387109374999996,1.0047512109375,0.26127494140624996,0.1739572265625,1.588090078125,-26.74126141085623,-6.670230690851154,-45.89545946357154
1694133746.13101,0.0017900781249999996,0.0026166406249999996,1.003652578125,-0.005753867187500039,0.31891572265625,-2.16557203125,-26.694320104825955,-7.6812768114566214,-46.172201404489506
1694133746.1509905,0.0030107812499999996,0.0031049218749999996,1.00359154296875,0.16209281249999996,0.77667939453125,-1.83750806640625,-26.679646604215602,-7.784671361261308,-45.53677101667213
1694133746.170992,0.0021562890624999996,0.0023724999999999996,1.00346947265625,-0.12782417968750004,0.4791330078125,-2.18846021484375,-26.681792608976345,-6.73204442424959,-46.11018298664283
1694133746.1910155,0.0028276757812499996,0.0021893945312499996,1.0037746484375,0.28416312499999996,-0.47454130859375,-0.52525220703125,-27.28971922823904,-7.620926692315997,-45.835772303659425
1694133746.2110062,0.0021562890624999996,0.0029828515624999996,1.00359154296875,-0.20411812500000004,0.15106904296875,0.93959154296875,-26.29822785397146,-6.285108867120685,-46.631044388498296
1694133746.231025,0.0025835351562499996,0.0022504296874999996,1.00420189453125,0.10868705078124996,0.34180390625,0.64204515625,-26.514798854703884,-7.278158956476154,-46.45202301496314
1694133746.25101,0.0025835351562499996,0.0026166406249999996,1.00389671875,0.01713431640624996,0.10529267578125001,0.77174486328125,-26.64618136947439,-6.684965252862872,-45.24027101545142
1694133746.2710109,0.0025224999999999996,0.0025556054687499996,1.00292015625,0.65800345703125,-0.04729521484374999,-0.57865796875,-26.550719048185332,-6.622612732843342,-46.22853223542213
1694133746.2910151,0.0027056054687499996,0.0034100976562499996,1.003652578125,0.18498099609374996,0.86823212890625,-1.2347858984375,-27.806378222013453,-7.677162266046464,-44.79398316242408
1694133746.3110178,0.0021562890624999996,0.0023724999999999996,1.003164296875,0.52830375,0.65460908203125,0.26820482421875,-26.61805203951834,-6.7894080980777165,-45.88923388739966
1694133746.3310204,0.0025224999999999996,0.0024945703124999996,1.00359154296875,0.38334525390624996,-1.39006865234375,-0.24296460937499997,-27.869720505338652,-7.606860007745684,-45.02696120197486
1694133746.351028,0.0025224999999999996,0.0023114648437499996,1.00346947265625,0.52830375,0.677497265625,-0.8380573828125,-26.71224182211111,-6.826345555108966,-46.23249721283912
1694133746.3710349,0.0025835351562499996,0.0026776757812499996,1.00420189453125,0.45963919921874996,0.8453439453125,0.34449876953125,-26.804361140836694,-6.906837546319904,-46.17242499274634
1694133746.39106,0.0023393945312499996,0.0027997460937499996,1.003164296875,0.55119193359375,-0.03966582031249999,0.80226244140625,-27.581094771574005,-7.482261593194902,-46.130994560373296
1694133746.4110413,0.0024004296874999996,0.0023724999999999996,1.00395775390625,-0.22700630859375004,0.19684541015625,0.93959154296875,-26.732520635221462,-6.965487725030842,-46.44452794880103
1694133746.4310408,0.0025835351562499996,0.0026166406249999996,1.0037746484375,0.38334525390624996,1.11237275390625,-2.2418659765625,-27.69248743881033,-7.25121106878084,-45.35061315180396
1694133746.4510436,0.0031328515624999996,0.0025556054687499996,1.00383568359375,0.11631644531249996,0.86823212890625,1.30580248046875,-26.499560055509548,-6.666451632745685,-46.042685481515875
1694133746.4710455,0.0025835351562499996,0.0030438867187499996,1.0035305078125,0.19261039062499996,-0.71868193359375,0.031693593750000026,-26.76871716171072,-6.523758025812091,-45.3515429879856
1694133746.491049,0.0025224999999999996,0.0028607812499999996,1.00322533203125,-0.02864205078125004,0.3875802734375,-2.3334187109375,-26.89000744759939,-7.56109601848787,-45.731782375070566
1694133746.5110512,0.0028276757812499996,0.0028607812499999996,1.003652578125,0.04002249999999996,1.013190625,1.038773671875,-26.7136363139324,-6.650882678155841,-45.758437908395756
1694133746.5310738,0.0027666406249999996,0.0021893945312499996,1.0032863671875,-0.15071236328125004,-0.04729521484374999,1.04640306640625,-27.660452987150173,-7.839088513116779,-44.91186700385474
1694133746.5510724,0.0029497460937499996,0.0025556054687499996,1.00273705078125,0.6045976953125,1.20392548828125,-0.9601276953125,-26.629553904386505,-6.613203141046466,-46.493398553903575
1694133746.5710697,0.0028276757812499996,0.0032269921874999996,1.00530052734375,0.23838675781249996,1.5167306640625,-1.30345044921875,-27.13337754769705,-7.233778145929277,-45.79395632184791
1694133746.5910673,0.0022173242187499996,0.0033490624999999996,1.0062160546875,0.40623343749999996,0.82245576171875,1.0845500390625,-26.962839745206818,-7.4809364115542785,-45.655600560495365
1694133746.611089,0.0028887109374999996,0.0023724999999999996,1.00420189453125,0.26127494140624996,0.2655099609375,-0.44895826171875,-27.002907732389428,-7.287488743585529,-46.65070991425513
1694133746.6311047,0.0019121484374999996,0.0027997460937499996,1.0035305078125,-0.10493599609375004,0.48676240234375,-1.74595533203125,-27.887353375699977,-7.503085670831622,-44.61873428644752
1694133746.651091,0.0025835351562499996,0.0024335351562499996,1.00493431640625,0.04002249999999996,0.94452607421875,0.7488566796875,-26.662096140714628,-7.4285809193667784,-46.52700339887427
1694133746.6710963,0.0024004296874999996,0.0021283593749999996,1.00530052734375,0.18498099609374996,0.128180859375,0.26820482421875,-27.37634500729178,-7.686634856378497,-46.61355001606177
1694133746.6910918,0.0025224999999999996,0.0031049218749999996,1.0023098046875,-0.22700630859375004,0.44098603515625,-0.79991041015625,-26.37688318380545,-6.538509430108965,-45.77195771589088
1694133746.711138,0.0030718164062499996,0.0016400781249999996,1.00359154296875,-0.44825875000000004,0.24262177734375,-1.280562265625,-26.63592200948904,-6.360891391534746,-46.87144771308326
1694133746.7311056,0.0029497460937499996,0.0025556054687499996,1.0032863671875,-0.11256539062500004,0.08240449218750001,0.45131029296875,-27.704920148771265,-7.467046220636309,-45.7656859900608
1694133746.7511177,0.0023393945312499996,0.0028607812499999996,1.00530052734375,-0.05915962890625004,0.21973359375,-1.4941853125,-26.65040813705252,-6.412595217706622,-46.83491209430884
1694133746.771109,0.0028887109374999996,0.0027997460937499996,1.0042629296875,-0.02864205078125004,1.08185517578125,-1.67729078125,-28.05812833712576,-7.55740616985506,-46.23497009052467
1694133746.7911503,0.0027666406249999996,0.0025556054687499996,1.00346947265625,0.31468070312499996,0.555426953125,1.16847337890625,-26.788393582242946,-6.404911140558185,-46.58408735187721
1694133746.8111103,0.0031328515624999996,0.0023724999999999996,1.00420189453125,0.50541556640625,-0.5737234375,1.160843984375,-26.812104670743924,-6.615256684503497,-46.861863596872325
1694133746.8311226,0.0027056054687499996,0.0029218164062499996,1.00542259765625,0.13920462890624996,1.15814912109375,-0.09800611328124997,-27.697972151090603,-7.599778962335528,-45.82866623053931
1694133746.851121,0.0031938867187499996,0.0024335351562499996,1.00432396484375,0.04002249999999996,1.3946603515625,0.72596849609375,-27.011055002164824,-7.026679722101153,-45.89369134723854
1694133746.8711243,0.0022173242187499996,0.0026166406249999996,1.003652578125,0.58170951171875,-1.9622732421875,0.84803880859375,-27.774739917081813,-7.282306582452716,-45.80872222309303
1694133746.8911226,0.0033769921874999996,0.0021893945312499996,1.003652578125,0.13920462890624996,0.6317208984375,1.74067796875,-27.03522869735525,-6.484796991144123,-46.662976841257084
1694133746.9111283,0.0024004296874999996,0.0034100976562499996,1.004385,0.36045707031249996,0.677497265625,-0.3497761328125,-26.948214871793727,-6.603740544366779,-46.427682331003176
1694133746.9311295,0.0027056054687499996,0.0027387109374999996,1.0049953515625,0.70377982421875,0.9674142578125,2.34340013671875,-27.03756978695486,-7.543018914972247,-45.18329104108619
1694133746.9511335,0.0020952539062499996,0.0032880273437499996,1.00487328125,-0.23463570312500004,-0.3295828125,-1.06693921875,-26.70720855550955,-6.595676064386308,-46.66685444953345
1694133746.9711454,0.0030107812499999996,0.0021283593749999996,1.0045070703125,0.20786917968749996,1.23444306640625,-2.03587232421875,-27.654289242032984,-7.430657543878497,-45.97328855231666
1694133746.9911456,0.0032549218749999996,0.0020673242187499996,1.0042629296875,0.38334525390624996,0.7537912109375,1.8169719140625,-26.63427913839529,-6.478781047296466,-46.20108873969458
1694133747.0111508,0.0023393945312499996,0.0031049218749999996,1.0042629296875,0.62748587890625,-1.9622732421875,0.28346361328125,-26.353352780363064,-7.502521288995684,-46.016536339792246
1694133747.0311513,0.0020342187499999996,0.0032269921874999996,1.00456810546875,0.01713431640624996,-0.11595976562499999,-1.71543775390625,-26.529221523771266,-6.401091528253497,-44.873154577096926
1694133747.051154,0.0022783593749999996,0.0025556054687499996,1.00389671875,-0.10493599609375004,0.8911203125,1.04640306640625,-26.44440011520193,-6.27560260735506,-45.89866085334205
1694133747.071612,0.0023393945312499996,0.0024945703124999996,1.00407982421875,-0.10493599609375004,-1.7486501953125,-0.18955884765624997,-27.726294620695096,-7.078498941827714,-46.95263583112525
1694133747.0914235,0.0021562890624999996,0.0023724999999999996,1.0037746484375,-0.05915962890625004,-0.8636404296875,0.14613451171875003,-26.270187483976343,-6.758466612726153,-45.73854707258033
1694133747.1113338,0.0025224999999999996,0.0029218164062499996,1.004385,-0.13545357421875004,0.05188691406250001,-0.7159870703125,-27.03408337130545,-7.808351567804278,-45.05702230304908
1694133747.1313233,0.0031328515624999996,0.0024335351562499996,1.004629140625,0.45963919921874996,-1.916496875,1.2371379296875,-26.396419624235136,-6.941459538507404,-46.1560088629856
1694133747.1513221,0.0009355859374999996,0.0032880273437499996,1.0040187890625,0.43675101562499996,-1.34429228515625,1.06166185546875,-26.021292144620876,-6.919725598077714,-45.78677629950904
1694133747.1713216,0.0026445703124999996,0.0017621484374999996,1.00383568359375,-0.22700630859375004,-0.21514189453125,1.51942552734375,-27.168870267057397,-7.756339069269121,-46.01236757319068
1694133747.1913426,0.0025224999999999996,0.0025556054687499996,1.00456810546875,0.28416312499999996,1.3031076171875,1.649125234375,-26.56822555172537,-6.886608369073809,-45.62079158454322
1694133747.211423,0.0022173242187499996,0.0026166406249999996,1.00334740234375,0.99369681640625,-1.77153837890625,0.86329759765625,-27.439973863248806,-8.02773942424959,-46.50748813617896
1694133747.231351,0.0031938867187499996,0.0022504296874999996,1.00469017578125,0.33756888671874996,-0.64238798828125,0.92433275390625,-26.59245791952322,-7.093739846612872,-45.96752740497779
1694133747.2513378,0.0021562890624999996,0.0023724999999999996,1.004629140625,0.558821328125,1.20392548828125,-0.89146314453125,-26.305230051237086,-6.442061232843342,-46.716026678537354
1694133747.2713542,0.0030718164062499996,0.0026166406249999996,1.00420189453125,-0.005753867187500039,-2.1606375,0.9929973046875,-27.260058740690212,-7.44479095159334,-46.14138718134498
1694133747.291339,0.0033159570312499996,0.0032880273437499996,1.0045070703125,-0.40248238281250004,-0.4058767578125,-1.9824665625,-26.367209170133574,-6.351847832452715,-45.52767678302955
1694133747.3113513,0.0025224999999999996,0.0027997460937499996,1.00359154296875,-0.15071236328125004,0.3570626953125,-0.07511792968749997,-27.285861440153102,-7.844838774835528,-44.48409677204322
1694133747.3313444,0.0021562890624999996,0.0025556054687499996,1.00420189453125,0.09342826171874996,-1.67998564453125,0.93959154296875,-26.122366585050564,-7.1476013275699035,-44.69960516840552
1694133747.3513436,0.0030107812499999996,0.0021283593749999996,1.00432396484375,0.70377982421875,-1.64946806640625,1.5423137109375,-26.549490156583765,-6.968864530694904,-44.642170352731696
1694133747.3713467,0.0024004296874999996,0.0027997460937499996,1.004629140625,-0.10493599609375004,-0.451653125,1.038773671875,-26.334353312589627,-7.311780671808185,-44.79747079914283
1694133747.3913474,0.0020952539062499996,0.0027387109374999996,1.004385,0.36045707031249996,0.94452607421875,-0.006453378906249974,-26.918317284635528,-6.752347173273028,-45.34285646747779
1694133747.4113576,0.0028887109374999996,0.0021893945312499996,1.004385,0.85636771484375,-1.7791677734375,-0.37266431640625,-27.801392348356224,-7.813191392999591,-45.051813188913336
1694133747.4313765,0.0025835351562499996,0.0019452539062499996,1.0045070703125,0.48252738281249996,-0.88652861328125,1.32106126953125,-26.221537827604273,-7.215401690851153,-45.44298997297095
1694133747.4513764,0.0028276757812499996,0.0030438867187499996,1.004385,-0.722916953125,0.3875802734375,2.6104289453125,-26.238253525480253,-7.191781358819902,-45.96027366864966
1694133747.4713933,0.0028887109374999996,0.0024945703124999996,1.0042629296875,0.31468070312499996,-1.89360869140625,0.22242845703125003,-25.864007105070094,-7.105510386651934,-44.59603524079322
1694133747.4913793,0.0024614648437499996,0.0025556054687499996,1.003652578125,0.8487383203125,-1.1993337890625,0.12324632812500003,-26.190031343229272,-6.470609289972247,-45.222814538156506
1694133747.511381,0.0030718164062499996,0.0037152734374999996,1.00359154296875,0.16209281249999996,-0.71868193359375,0.24531664062500003,-27.279003636686305,-6.999197382257403,-44.589656193185796
1694133747.531388,0.0019731835937499996,0.0027387109374999996,1.0042629296875,-0.013383261718750039,1.03607880859375,1.282914296875,-26.17294568514822,-6.984183419855059,-45.32648132196998
1694133747.5513797,0.0036211328124999996,0.0005414453124999996,1.00298119140625,0.55119193359375,-1.36718046875,1.51942552734375,-26.783554301115018,-7.474144087335528,-45.654384242136
1694133747.5713882,0.00020316406249999957,0.0044476953125,1.0059719140625,-0.13545357421875004,-0.9551931640625,0.2605754296875,-26.13046204818533,-6.6869857216128725,-44.777065317209235
1694133747.5913877,0.0027056054687499996,0.0027997460937499996,1.003652578125,0.26127494140624996,0.31891572265625,-0.5328816015625,-26.226417695035916,-6.589880872003496,-45.871676131784426
1694133747.6113963,0.0027056054687499996,0.0021893945312499996,1.0035305078125,0.23838675781249996,-1.93938505859375,0.24531664062500003,-26.923408183805446,-7.547305583429276,-45.26242628241919
1694133747.6314006,0.0022173242187499996,0.0026166406249999996,1.00371361328125,-0.12782417968750004,-0.8331228515625,1.22950853515625,-26.422096151090603,-6.177263011163653,-46.659720812082284
1694133747.6514206,0.0020952539062499996,0.0029218164062499996,1.0030422265625,-0.10493599609375004,-0.55083525390625,-1.80699048828125,-27.667447278409938,-7.262107965753498,-45.3613969768772
1694133747.671405,0.0030107812499999996,0.0024335351562499996,1.0035305078125,0.26127494140624996,-1.77153837890625,0.26820482421875,-25.765374128751734,-6.528851614190996,-44.68911471271705
1694133747.691421,0.0031328515624999996,0.0024335351562499996,1.0042629296875,0.48252738281249996,-1.8707205078125,1.893265859375,-26.152119659757595,-6.435241456964436,-45.41901071772193
1694133747.7114081,0.004231484375,0.0023724999999999996,1.00389671875,0.38334525390624996,-1.1993337890625,0.58101,-27.286972732999782,-6.906351749444904,-44.467602606637946
1694133747.7314122,0.0027056054687499996,0.0027997460937499996,1.00432396484375,0.40623343749999996,1.013190625,0.672562734375,-26.438991062467554,-6.170404579523028,-45.765562802072516
1694133747.7514167,0.0020952539062499996,0.0032269921874999996,1.00420189453125,1.10050833984375,-1.7791677734375,0.11561693359375003,-27.931957143766383,-6.9608637069644335,-46.20252126984595
1694133747.7714179,2.005859374999957e-05,0.00414251953125,1.0034084375,0.08579886718749996,-1.580803515625,0.7488566796875,-26.01333077633474,-5.867840741144121,-45.28196429853248
1694133747.7914603,0.00020316406249999957,0.0037152734374999996,1.004140859375,-0.08204781250000004,1.32599580078125,-0.98301587890625,-26.27070533028982,-6.4806487343081844,-45.60154212690162
1694133747.8114245,0.0034380273437499996,0.0024945703124999996,1.0035305078125,0.91740287109375,-2.2064138671875,0.8404094140625,-26.227684526456812,-7.503255868585529,-43.52662442194556
1694133747.8314323,0.0016069726562499996,0.0034711328124999996,1.0042629296875,1.02421439453125,0.19684541015625,-1.372115,-25.93785836190603,-6.0695661762027155,-45.92629422907447
1694133747.8514261,0.0022173242187499996,0.00438666015625,1.0040187890625,0.6503740625,0.34180390625,0.12324632812500003,-27.076184296842555,-7.055591970636309,-44.53961467609595
1694133747.871456,2.005859374999957e-05,0.00481390625,1.00456810546875,0.52830375,0.41046845703125,1.09217943359375,-26.738615468107206,-6.427314184015216,-45.27520181208228
1694133747.8914375,-0.0010175390625000004,0.00463080078125,1.0032863671875,0.45963919921874996,-2.2979666015625,1.56520189453125,-26.343696793668727,-6.994940637628497,-45.763283382760996
1694133747.9114375,-0.0006513281250000004,0.005546328125,1.00359154296875,-0.24989449218750004,-1.10015166015625,0.92433275390625,-26.64169433444021,-7.305591400323809,-46.23398414716529
1694133747.931458,0.0027666406249999996,0.0038983789062499996,1.00359154296875,0.23838675781249996,0.555426953125,0.0011760156250000264,-26.340827618131616,-6.0169462904605275,-46.84951986676978
1694133747.9514458,0.0015459374999999996,0.0044476953125,1.00456810546875,0.48252738281249996,-1.80205595703125,0.9014445703125,-27.476880022794703,-6.986201437433184,-45.29151273066138
1694133747.9714484,-0.0007123632812500004,0.004569765625,1.0049953515625,-0.42537056640625004,-0.07018339843749999,1.3897258203125,-25.907344768888454,-6.114210770440996,-45.213002512033455
1694133747.9914634,-0.00046822265625000043,0.0035321679687499996,1.005117421875,-0.32618843750000004,-0.4058767578125,-1.60862623046875,-26.786723543912867,-7.457075971612872,-44.70320871711158
1694133748.0114572,-0.0016278906250000004,0.00609564453125,1.00346947265625,-1.2569745703125,0.07477509765625001,1.30580248046875,-26.278377732999783,-7.031248242120684,-45.46295280097389
1694133748.0314558,0.0019731835937499996,0.0025556054687499996,1.00530052734375,0.5740801171875,-0.01677763671874999,0.77174486328125,-25.996545304166773,-6.638794676690997,-45.69557064435767
1694133748.0514615,0.0011186914062499996,0.004325625,1.00456810546875,-0.28041207031250004,-1.46636259765625,0.9014445703125,-27.130230804899195,-7.389256309015216,-46.165647618600836
1694133748.0714667,0.00032523437499999957,0.0037152734374999996,1.005117421875,-0.40248238281250004,-0.238030078125,-1.57810865234375,-26.20491030319021,-6.5174184447574035,-46.60867820990943
1694133748.0914767,0.0005083398437499996,0.004325625,1.0052394921875,0.18498099609374996,-1.9927908203125,0.794633046875,-27.125751557218535,-7.491373101007403,-46.61993446430396
1694133748.1115034,0.0017900781249999996,0.0020673242187499996,1.00389671875,0.04002249999999996,-2.496330859375,-0.18955884765624997,-25.90328532662771,-6.809172039483966,-45.93969221589087
1694133748.131547,0.0007524804687499996,0.0037152734374999996,1.00383568359375,0.38334525390624996,-1.031487109375,-1.1127155859375,-25.673021456266383,-6.768133749444903,-46.1001054094944
1694133748.1515522,0.0023393945312499996,0.0034100976562499996,1.00505638671875,0.925032265625,-1.39006865234375,0.9014445703125,-27.206757057584745,-7.563418331964435,-45.41321437555885
1694133748.171495,0.0025224999999999996,0.0024945703124999996,1.00371361328125,1.2149492578125,-0.50505888671875,-0.84568677734375,-26.12695209249685,-6.6291830380191215,-46.006757532663336
1694133748.191494,-0.00034615234375000043,0.00426458984375,1.00420189453125,0.18498099609374996,-0.59661162109375,-2.41734205078125,-27.449770810758572,-7.572027236749589,-46.74531828327369
1694133748.2114954,-0.0031537695312500004,0.0066449609375,1.00298119140625,-0.10493599609375004,0.6317208984375,-1.34922681640625,-26.48773899703787,-7.347691683038654,-46.00146930390357
1694133748.2315025,-0.0012616796875000004,0.0053021875,1.00224876953125,0.38334525390624996,-2.42766630859375,0.367386953125,-25.86525064999197,-6.789956857355058,-46.05489987970923
1694133748.2515051,-0.0006513281250000004,0.0038983789062499996,1.002676015625,-0.20411812500000004,-1.39006865234375,0.23005785156250003,-26.2247772168865,-6.797649050714434,-46.183758404733645
1694133748.271528,0.00038626953124999957,0.0038373437499999996,1.003652578125,0.19261039062499996,-0.21514189453125,-0.40318189453125,-26.30312788778494,-6.3343407069644355,-45.585244374216074
1694133748.2915256,0.00038626953124999957,0.0044476953125,1.00346947265625,0.09342826171874996,-1.89360869140625,1.282914296875,-27.340245168790798,-7.352548966241779,-45.53820920148658
1694133748.3115237,-0.0009565039062500004,0.00499701171875,1.00334740234375,-0.08204781250000004,-1.6570974609375,1.67201341796875,-26.284223518766385,-6.597425269952716,-46.54851910993384
1694133748.331532,-0.00022408203125000043,0.004569765625,1.00334740234375,0.04002249999999996,-0.5737234375,-1.05930982421875,-26.48868786910818,-7.418812738214434,-45.803405451486576
1694133748.3515294,0.0008745507812499996,0.004081484375,1.003164296875,0.28416312499999996,-0.8178640625,0.7793742578125,-26.2008889356365,-6.313771050226152,-45.67703111347388
1694133748.3715248,2.005859374999957e-05,0.00402044921875,1.003652578125,0.680891640625,-0.18462431640625,1.06166185546875,-26.034260727872827,-6.536823817804278,-46.055872167917244
1694133748.3915308,-0.0016889257812500004,0.0046918359375,1.0037746484375,0.11631644531249996,-1.0620046875,0.09272875000000003,-26.75993689913748,-7.186249355401934,-45.71259100043678
1694133748.411533,-0.0010175390625000004,0.0054242578125,1.00285912109375,0.07054007812499996,-0.1922537109375,1.221879140625,-25.829935123380643,-6.540928390558184,-46.06543967463111
1694133748.4315362,-0.0018720312500000004,0.005058046875,1.0030422265625,0.58170951171875,-1.458733203125,1.2066203515625,-27.13143688363455,-7.184166518976152,-45.796099032785406
1694133748.4515789,-0.00010201171875000043,0.00426458984375,1.00346947265625,-0.05915962890625004,-1.61132109375,1.16847337890625,-26.109863001432398,-6.868153355890215,-45.90445979535865
1694133748.4715652,-0.00034615234375000043,0.00438666015625,1.002676015625,-0.05915962890625004,-0.11595976562499999,0.31398119140625,-26.730500878629666,-6.397902420343341,-45.89575111115455
1694133748.4916406,-0.0005292578125000004,0.00481390625,1.00273705078125,-0.05153023437500004,-1.4129568359375,0.08509935546875003,-26.839764587369896,-7.340055624444903,-45.396901735177984
1694133748.5121129,-0.00010201171875000043,0.00450873046875,1.00273705078125,-0.27278267578125004,-0.07018339843749999,-0.044600351562499974,-26.67508373165701,-6.283264240167559,-45.92321121637916
1694133748.531855,-0.0005902929687500004,0.0046918359375,1.0018215234375,0.21549857421874996,-1.36718046875,-1.30345044921875,-27.820732469694118,-7.452581675226153,-45.90492273761939
1694133748.5518265,-0.0006513281250000004,0.0039594140625,1.00273705078125,0.13920462890624996,-0.42876494140625,-0.43369947265625,-26.541142154020292,-6.633005759210527,-46.52619882697486
1694133748.5718277,-0.0012616796875000004,0.00487494140625,1.0023098046875,0.53593314453125,-1.84783232421875,1.8474894921875,-26.98842601852224,-7.068892884210528,-46.02929402741431
1694133748.591843,-0.0008954687500000004,0.00438666015625,1.00212669921875,0.30705130859374996,-1.4129568359375,-1.8146198828125,-27.615418446866972,-7.1265783539370915,-45.83709432245826
1694133748.6116369,-0.0012006445312500004,0.0049359765625,1.00200462890625,-0.05153023437500004,-1.1993337890625,-0.76939283203125,-26.47373116952322,-6.759183139581621,-45.625540202707285
1694133748.6315958,-0.0010175390625000004,0.00475287109375,1.0014553125,0.36045707031249996,-1.48925078125,1.35157884765625,-27.818717186124783,-7.344325471612872,-44.78563369587135
1694133748.651598,-0.00034615234375000043,0.0046918359375,1.00102806640625,0.19261039062499996,-2.09197294921875,1.6338664453125,-25.772936052213648,-6.130630329034746,-45.807553776193615
1694133748.6716187,-0.0011396093750000004,0.00426458984375,1.00139427734375,-0.15071236328125004,-1.39006865234375,-0.7617634375,-26.214845996549585,-6.887198298273029,-46.11096220527076
1694133748.6916075,-0.0009565039062500004,0.004325625,1.00163841796875,0.36045707031249996,-1.22222197265625,-0.487105234375,-26.668933405607202,-7.252820574151933,-45.27309615253638
1694133748.7115993,-0.0013227148437500004,0.004325625,1.00163841796875,0.26127494140624996,-2.13774931640625,1.7254191796875,-26.328323780973417,-6.6432915082339665,-45.606419098459234
1694133748.7315998,-0.00022408203125000043,0.00438666015625,1.00163841796875,-0.10493599609375004,-1.72576201171875,2.12977708984375,-27.271500639371855,-7.240639686456622,-45.49662285138892
1694133748.751607,-0.0023603125000000004,0.006522890625,1.00096703125,-0.59321724609375,-1.580803515625,-1.27293287109375,-26.88282358456228,-6.671282095148028,-45.988361242868415
1694133748.7716277,0.0007524804687499996,0.0029828515624999996,1.0025539453125,-0.02864205078125004,-1.96990263671875,1.87037767578125,-26.685274357389428,-7.53939699407381,-44.4464478350315
1694133748.7916126,-0.0008954687500000004,0.0039594140625,1.001211171875,0.08579886718749996,-2.68706572265625,2.70961107421875,-26.756095057950954,-6.719791806085529,-45.9048968950901
1694133748.8116179,2.005859374999957e-05,0.0033490624999999996,1.0013332421875,-0.10493599609375004,-0.6194998046875,-0.98301587890625,-26.0958947201824,-6.5386316513003715,-45.80399046845435
1694133748.8316188,-0.0007123632812500004,0.00426458984375,1.00127220703125,-0.17360054687500004,-1.26799833984375,0.71070970703125,-27.344152370573028,-7.238564945245684,-45.07296477094459
1694133748.8516245,-0.0005902929687500004,0.00475287109375,1.00194359375,0.23838675781249996,-1.89360869140625,1.04640306640625,-26.048496455411893,-6.787724978937091,-46.51531102326392
1694133748.871626,-0.0013837500000000004,0.00475287109375,1.0006008203125,0.11631644531249996,-1.12303984375,-1.05930982421875,-27.65972416842459,-7.322648296808185,-45.6454275949192
1694133748.8916397,-0.0008344335937500004,0.00475287109375,1.00102806640625,-0.41774117187500004,-0.7415701171875,-0.426070078125,-26.308551593839628,-6.470237003351153,-45.59084518171119
1694133748.9116356,-0.00028511718750000043,0.00475287109375,1.00194359375,0.21549857421874996,-1.031487109375,0.4741984765625,-26.599085624235137,-6.655095774835528,-47.15653307709693
1694133748.9316485,-0.0005292578125000004,0.00438666015625,1.00102806640625,-0.10493599609375004,-0.96282255859375,2.11451830078125,-26.91664516622732,-7.435061426202714,-45.01493128315162
1694133748.9516933,-0.0006513281250000004,0.004569765625,1.0015773828125,0.06291068359374996,-1.46636259765625,-1.127974375,-26.380415952360135,-6.455150105890215,-46.49817596894263
1694133748.9716496,-0.0013837500000000004,0.00481390625,1.00090599609375,-0.15071236328125004,-0.8636404296875,1.404984609375,-27.46434823190115,-7.4563033519839665,-46.062324421457284
1694133748.991658,-0.0008344335937500004,0.0038373437499999996,1.00090599609375,0.13920462890624996,-1.75627958984375,1.65675462890625,-26.31241146200369,-6.615775498956621,-45.38956726288795
1694133749.011656,0.0005693749999999996,0.0031659570312499996,1.00212669921875,-0.15071236328125004,-2.1148611328125,-0.059859140624999974,-26.22633866183279,-6.698128328546465,-45.40819588471412
1694133749.031658,-0.0012616796875000004,0.00524115234375,1.0010891015625,-0.34907662109375004,-0.6194998046875,-0.29637037109375,-27.588293228605252,-7.776552650812091,-45.65947914728736
1694133749.0516593,-0.0013837500000000004,0.0046918359375,1.00096703125,-0.02864205078125004,-2.18352568359375,0.733597890625,-26.300804690275175,-7.113435187433185,-44.78288135798072
1694133749.0716777,-0.0008344335937500004,0.00426458984375,1.0018215234375,-0.12782417968750004,-2.83202421875,1.45839037109375,-27.75871245162771,-7.378655002862871,-45.058894887277596
1694133749.0916653,0.00014212890624999957,0.00426458984375,1.00151634765625,-0.44825875000000004,-1.10015166015625,-0.73887525390625,-26.699190772672637,-7.042890979913652,-45.293956576242444
1694133749.1116705,-0.0013227148437500004,0.00450873046875,1.00096703125,0.38334525390624996,-1.1993337890625,1.3592082421875,-26.19292774532888,-7.14054959612459,-45.43453701703834
1694133749.1316745,-0.00016304687500000043,0.0044476953125,1.001211171875,-0.15071236328125004,-1.2908865234375,3.1292277734375,-26.41769807601736,-7.166804059015215,-46.11197375592994
1694133749.1516786,0.00044730468749999957,0.004081484375,1.002431875,0.16209281249999996,-1.10015166015625,-1.34922681640625,-26.17227443966482,-6.405810988702715,-46.3265296631565
1694133749.171702,-0.00034615234375000043,0.004325625,1.0018215234375,-0.24989449218750004,0.16632783203125,2.02296556640625,-27.350778781705838,-7.520988773858965,-44.590491773019785
1694133749.1917067,-0.0015668554687500004,0.00450873046875,1.00005150390625,0.06291068359374996,-1.48925078125,2.03822435546875,-26.169321563688257,-6.608749320733965,-45.159282010446546
1694133749.2117062,-0.0008344335937500004,0.0044476953125,1.00078392578125,-0.12782417968750004,-1.580803515625,-1.0516804296875,-26.669132058317164,-7.480037788995686,-45.69903969574928
1694133749.2317348,-0.00040718750000000043,0.00402044921875,1.00078392578125,-0.47114693359375004,-0.4058767578125,-0.25059400390625,-26.70686648971365,-6.615652031183184,-45.18645316840552
1694133749.2517066,-0.0012006445312500004,0.00481390625,1.000722890625,0.19261039062499996,-1.60369169921875,0.9014445703125,-26.104667195402126,-6.394649677179277,-45.982368742013925
1694133749.2717102,0.00044730468749999957,0.00487494140625,1.00115013671875,0.13920462890624996,-0.13884794921875,1.10743822265625,-27.74831648519705,-7.224760812921465,-45.96010358771705
1694133749.2917345,-0.00010201171875000043,0.00450873046875,1.00212669921875,-0.34907662109375004,-0.45928251953125,1.00825609375,-26.569420350797635,-6.299202988214434,-45.4972654621067
1694133749.311706,-0.00040718750000000043,0.0039594140625,1.0010891015625,-0.37196480468750004,-0.238030078125,0.5962687890625,-27.767980332487085,-7.444666237237874,-45.76719174494362
1694133749.3317077,-0.00028511718750000043,0.00438666015625,1.00041771484375,-0.34907662109375004,-0.238030078125,0.64967455078125,-26.663487140226344,-6.3522930961245905,-45.75954027179908
1694133749.3517115,-0.0005902929687500004,0.004569765625,1.000722890625,0.13920462890624996,-1.24511015625,1.0235148828125,-26.57039411581228,-6.598612613702716,-45.702158627756106
1694133749.37172,-0.0012006445312500004,0.00426458984375,1.00090599609375,-0.22700630859375004,-0.21514189453125,0.336869375,-27.82790499374197,-7.3338588734683405,-45.806927031686776
1694133749.3917193,-0.00022408203125000043,0.00426458984375,1.0008449609375,-0.10493599609375004,-1.36718046875,-0.792281015625,-26.360369512296657,-6.437729654718341,-45.79914278302955
1694133749.4117205,-0.00010201171875000043,0.00511908203125,1.0006008203125,0.13920462890624996,-2.73284208984375,0.054581777343750026,-27.316086067594508,-7.298908831476153,-44.553987162179936
1694133749.4317307,-0.0011396093750000004,0.00463080078125,1.00041771484375,-0.05915962890625004,-1.10015166015625,-1.24241529296875,-26.092773851041773,-6.480902539483966,-45.71472275654029
1694133749.4517374,-0.0013837500000000004,0.004569765625,1.0010891015625,0.18498099609374996,-0.360100390625,0.611527578125,-26.4727110516033,-6.27780018548006,-44.82069752204322
1694133749.4717484,-0.00028511718750000043,0.00414251953125,1.00005150390625,-0.44825875000000004,-1.05437529296875,1.404984609375,-26.335884410856227,-6.96613812346834,-45.05337949189185
1694133749.4917815,-4.097656250000043e-05,0.0035321679687499996,1.00053978515625,-0.28041207031250004,-1.5350271484375,-1.2347858984375,-26.217134120817164,-6.30844608001131,-46.06735324311256
1694133749.511749,-0.00028511718750000043,0.004325625,1.0008449609375,-0.02864205078125004,-0.13884794921875,0.825150625,-27.63602773324392,-7.143001021417559,-45.24015410614967
1694133749.53176,-0.0007123632812500004,0.004325625,1.00090599609375,-0.28041207031250004,-1.51213896484375,1.00062669921875,-26.587457333219508,-6.5728495707339665,-46.26541537372779
1694133749.5517578,-0.0008344335937500004,0.0049359765625,1.00053978515625,-0.10493599609375004,-2.4200369140625,-0.57865796875,-26.62618128231619,-6.849518130304277,-45.14118734455298
1694133749.5717542,0.00032523437499999957,0.00402044921875,1.000234609375,-0.20411812500000004,-1.46636259765625,-1.22715650390625,-26.659067605192163,-7.388149385675372,-45.014800718698496
1694133749.5917614,-0.00034615234375000043,0.00426458984375,1.00102806640625,0.26127494140624996,-0.85601103515625,-0.11326490234374997,-26.864708921842556,-6.411036203058185,-46.51564905573463
1694133749.6118085,0.00032523437499999957,0.00426458984375,1.00115013671875,0.09342826171874996,-2.13774931640625,1.50416673828125,-28.020579807218535,-7.1090980492495905,-45.48572604987525
1694133749.6317644,0.00014212890624999957,0.0038983789062499996,1.00151634765625,-0.08204781250000004,-1.824944140625,-2.28764234375,-26.69864932699392,-6.371352387628496,-46.69948317389869
1694133749.6517692,-0.0005292578125000004,0.00450873046875,1.000722890625,-0.15071236328125004,-0.360100390625,-0.792281015625,-27.268693569425565,-7.286263359796465,-46.36627418293189
1694133749.671832,-0.0013227148437500004,0.00463080078125,0.99999046875,0.13920462890624996,-1.4434744140625,0.9319621484375,-26.511816612760523,-6.793479617120685,-45.45233054828834
1694133749.691799,-0.00016304687500000043,0.0042035546875,1.00102806640625,-0.12782417968750004,-1.22222197265625,-3.1573933203125,-26.566917880460718,-6.435314434015215,-46.01890485004615
1694133749.7118149,-0.0006513281250000004,0.0038373437499999996,1.00078392578125,-0.34907662109375004,0.15106904296875,-1.25767408203125,-28.004048108732203,-7.329237327569903,-45.52188314118385
1694133749.7317994,0.00020316406249999957,0.0037763085937499996,1.001211171875,-0.05915962890625004,-1.00096953125,1.64149583984375,-26.43800951009939,-6.389504309503496,-46.100095922433844
1694133749.751798,-0.00034615234375000043,0.0044476953125,1.00127220703125,0.11631644531249996,-2.2064138671875,-1.951948984375,-26.961414593839628,-7.68984951751131,-44.625736380929936
1694133749.7718053,-0.00028511718750000043,0.0046918359375,1.0014553125,-0.49403511718750004,-1.4434744140625,-1.4178913671875,-26.39356718209646,-6.363614038019122,-45.56179465278052
1694133749.791804,-0.0007123632812500004,0.0038373437499999996,1.00127220703125,0.13920462890624996,-0.59661162109375,-0.792281015625,-26.456153479459743,-6.711146738702716,-45.317813622018804
1694133749.811806,-0.00028511718750000043,0.00426458984375,1.0014553125,0.04002249999999996,-0.451653125,0.039322988281250026,-27.637717997282007,-7.39180998333162,-45.73398586933325
1694133749.8318,-0.0005902929687500004,0.00438666015625,1.0013332421875,0.01713431640624996,-1.10015166015625,-1.5399616796875,-26.04495584017752,-6.763372524347247,-46.24107975470923
1694133749.851811,-0.0005902929687500004,0.0042035546875,1.00127220703125,-0.32618843750000004,0.65460908203125,0.46656908203125,-27.453733192838648,-7.306232477960528,-45.56412035651587
1694133749.8718154,0.00014212890624999957,0.00450873046875,1.00151634765625,0.558821328125,-0.07018339843749999,1.26002611328125,-26.286183249845486,-6.510843132257404,-45.76092764960669
1694133749.8918152,-0.0005902929687500004,0.0039594140625,1.00102806640625,0.38334525390624996,-2.13774931640625,-0.69309888671875,-26.406252744352322,-7.096351512140216,-46.55077356476783
1694133749.9118137,-0.00022408203125000043,0.0039594140625,1.0015773828125,-0.10493599609375004,-1.67998564453125,0.07746996093750003,-26.18532866854666,-7.369662565362871,-45.023079425607676
1694133749.9318144,-0.0005292578125000004,0.0042035546875,1.00127220703125,-0.66951119140625,0.24262177734375,0.4131633203125,-26.249701190763453,-6.725891294366779,-46.416475804635986
1694133749.951825,-0.0006513281250000004,0.00438666015625,1.00151634765625,0.16209281249999996,-1.34429228515625,1.58046068359375,-27.455119897306425,-7.649278956476153,-45.62948733808326
1694133749.9718525,-0.0007733984375000004,0.005058046875,1.00212669921875,-0.22700630859375004,-1.46636259765625,-1.6009968359375,-25.974647472867947,-6.66110544378084,-45.99261467829322
1694133749.9918272,2.005859374999957e-05,0.004081484375,1.0020656640625,-0.34907662109375004,0.5096505859375,-0.548140390625,-26.216378194181424,-7.352502173273028,-45.67783347431373
1694133750.0118275,-0.0006513281250000004,0.0039594140625,1.002187734375,0.29179251953124996,-0.21514189453125,0.95485033203125,-26.486504651700958,-7.6761102250308415,-45.849535652048104
1694133750.0318294,-0.0010175390625000004,0.0038373437499999996,1.00139427734375,-0.49403511718750004,-1.84783232421875,-1.3873737890625,-26.226804760831815,-6.846724999933183,-46.19310895636939
1694133750.05183,-0.00040718750000000043,0.0036542382812499996,1.0018215234375,-0.24989449218750004,1.66168916015625,-2.18846021484375,-27.479747058927515,-6.968524072198809,-45.67079039557838
1694133750.071838,0.00026419921874999957,0.0039594140625,1.002187734375,-0.24989449218750004,-0.71868193359375,-0.55576978515625,-26.546476587247827,-6.679559210382402,-45.537865125558845
1694133750.0918396,-0.0008344335937500004,0.004569765625,1.00249291015625,0.11631644531249996,-2.18352568359375,0.855668203125,-26.86649157882498,-7.303363877374592,-45.67398515217017
1694133750.111854,-0.00022408203125000043,0.0044476953125,1.00224876953125,0.13920462890624996,-2.27507841796875,-2.85984693359375,-26.69539049850271,-6.578649713312091,-44.121329493234626
1694133750.1318533,-0.00016304687500000043,0.00426458984375,1.00261498046875,0.13920462890624996,0.6317208984375,-1.6620319921875,-26.036462031583767,-6.584828411554278,-46.08820924469947
1694133750.1518488,-0.0008954687500000004,0.0042035546875,1.00249291015625,-0.05915962890625004,-0.33721220703125,0.07746996093750003,-27.193375475553495,-7.276462124933184,-45.196205389719005
1694133750.1718576,2.005859374999957e-05,0.00414251953125,1.00224876953125,0.11631644531249996,-1.00859892578125,-1.48655591796875,-26.770947772062282,-6.633159156671466,-45.128885577219
1694133750.1918795,-0.00016304687500000043,0.00426458984375,1.0025539453125,0.680891640625,0.95978486328125,-1.585738046875,-27.509254206632594,-6.914690637628496,-46.315658214914315
1694133750.2118678,8.109374999999957e-05,0.0044476953125,1.0023098046875,0.62748587890625,1.0589669921875,2.503617421875,-26.485534201017362,-6.398862142999591,-45.675728404489504
1694133750.2318726,-0.0009565039062500004,0.005058046875,1.00224876953125,0.70377982421875,-1.05437529296875,-1.2958210546875,-26.610039963956815,-6.348663080011309,-45.52986317853736
1694133750.251877,-0.0010785742187500004,0.004569765625,1.00298119140625,0.23838675781249996,-0.67290556640625,-0.16667066406249997,-27.71758173946951,-6.903778144952716,-45.40035255573463
1694133750.2718942,-0.0016278906250000004,0.005058046875,1.00237083984375,0.30705130859374996,1.1352609375,0.8709269921875,-26.606832214933377,-6.291469645929279,-45.429102204050054
1694133750.2918873,-0.0009565039062500004,0.00481390625,1.00334740234375,0.50541556640625,-0.42876494140625,-0.06748853515624997,-27.291237753263456,-7.614036453546467,-44.66622478974342
1694133750.311888,-4.097656250000043e-05,0.00475287109375,1.00395775390625,0.7266680078125,-0.4058767578125,-1.89854322265625,-26.221116982145293,-6.437831924737873,-45.947063840036385
1694133750.3318963,0.006184609375,0.0022504296874999996,1.0079250390625,1.31413138671875,5.10254609375,-1.158491953125,-26.667904400968535,-6.4790005521792775,-45.69671718158912
1694133750.3518996,0.00575736328125,0.0034100976562499996,1.00896263671875,0.87162650390625,5.6518625,1.466019765625,-30.21576707858084,-7.251479901788652,-45.819179795480714
1694133750.371904,-0.00016304687500000043,0.00560736328125,1.006582265625,0.680891640625,5.0262521484375,-0.3802937109375,-26.837602711271266,-6.298595601007403,-45.46514582966041
1694133750.3919032,-0.0066327734375,0.0081098046875,1.0034084375,0.74955619140625,7.2387765625,-1.4484089453125,-28.37798410360525,-6.960538192315997,-46.04572774518775
1694133750.4119067,-0.0112714453125,0.00975775390625,1.00334740234375,0.26127494140624996,6.2774728515625,-0.5176228125,-27.152451203458767,-6.510293126398029,-45.42418031537818
1694133750.4319592,-0.0066327734375,0.00707220703125,1.007070546875,0.11631644531249996,7.330329296875,-0.09037671874999997,-27.45082323678396,-7.41654032659334,-44.7908576977024
1694133750.4519103,-4.097656250000043e-05,0.01110052734375,1.01335716796875,-0.005753867187500039,10.93903291015625,0.25294603515625,-27.318669964078882,-7.1444284520816215,-45.478269267648685
1694133750.4719114,0.0036821679687499996,0.00756048828125,1.01787376953125,0.772444375,16.973883984375,-3.2489460546875,-27.50394325411795,-6.56505138860506,-45.86059166132545
1694133750.4919107,-0.01084419921875,0.007011171875,1.013418203125,1.43620169921875,17.33246552734375,-2.67674146484375,-28.666910023282988,-7.342516412530841,-45.25163394880103
1694133750.5119133,-0.020182578125,0.00719427734375,1.01128197265625,0.58170951171875,21.75751435546875,-2.04350171875,-28.028765523893334,-6.296329443292559,-45.693204680856695
1694133750.5319328,-0.0218915625,0.0059125390625,1.01518822265625,1.0928789453125,26.44196259765625,-2.46311841796875,-29.920959259855252,-7.318941626886309,-45.45821202973365
1694133750.551931,-0.03550240234375,0.00774359375,1.01128197265625,1.34464896484375,26.1749337890625,-1.280562265625,-29.313861893156034,-6.165715742608965,-45.57209556415747
1694133750.5719485,-0.05674263671875,0.0093305078125,1.0040187890625,1.4896074609375,25.35858857421875,-1.0059040625,-29.795305912809354,-6.444581285577716,-45.28875826337623
1694133750.5919523,-0.08195015625,0.0110394921875,0.99150658203125,1.3675371484375,22.59674775390625,0.39790453125,-30.912470994718536,-7.797497787042559,-45.54896986554908
1694133750.6119537,-0.09043404296875,0.00914740234375,0.99706078125,1.3370195703125,22.4823068359375,0.7030803125,-30.587155290250756,-7.021644172784746,-45.488237547189705
1694133750.6319556,-0.0859784765625,0.00841498046875,1.004385,1.51249564453125,24.22943818359375,0.24531664062500003,-32.23971328951834,-7.19094458391756,-43.75148466535377
1694133750.6519728,-0.087565390625,0.0112836328125,1.00975609375,1.39042533203125,25.19074189453125,1.5117961328125,-31.35190993099783,-6.336567725030841,-46.75170723530005
1694133750.6719613,-0.087077109375,0.01561712890625,1.012441640625,0.74955619140625,32.88117158203125,-0.89146314453125,-31.900623542814238,-6.479678513116777,-44.67417806891822
1694133750.6919715,-0.1072187109375,0.016776796875,0.9974269921875,1.19206107421875,31.22559296875,-0.044600351562499974,-33.487966466886505,-7.4315487767886514,-43.59097117194556
1694133750.711963,-0.13315865234375,0.0144574609375,0.99407005859375,1.31413138671875,29.78363740234375,-0.8380573828125,-33.16723834994315,-6.506727451105061,-43.28443776740455
1694133750.7319613,-0.14133736328125,0.01415228515625,0.99431419921875,0.9708086328125,34.33075654296875,-1.8146198828125,-34.8339091429119,-7.569302808526936,-42.01357452668189
1694133750.751968,-0.154459921875,0.0127484765625,0.989980703125,0.50541556640625,33.270270703125,-0.13615308593749997,-34.00407377535818,-6.618655456476153,-43.424254366525645
1694133750.771966,-0.1724042578125,0.01464056640625,0.9893703515625,0.78007376953125,32.49970185546875,2.37391771484375,-34.02617467306326,-6.656669871026935,-42.89520237018775
1694133750.7919812,-0.17588326171875,0.016776796875,0.99577904296875,0.38334525390624996,34.1095041015625,-0.76939283203125,-35.227515791715604,-7.3434955873355285,-42.66899702863501
1694133750.8119721,-0.19333931640625,0.017265078125,0.98955345703125,-0.005753867187500039,38.2904123046875,-0.5023640234375,-36.50033751742362,-6.78055182171053,-43.05977556781959
1694133750.8319826,-0.22410103515625,0.01793646484375,0.97466087890625,0.50541556640625,35.4827951171875,-0.60154615234375,-38.078959713590606,-7.44998950969881,-40.87627237995338
1694133750.8519828,-0.24570748046875,0.01683783203125,0.96526146484375,0.26127494140624996,31.49262177734375,0.58101,-36.91514223190115,-6.9831833436831845,-41.44876474408912
1694133750.872001,-0.251627890625,0.01683783203125,0.9662990625,0.87162650390625,33.21686494140625,-0.9601276953125,-37.98376587862967,-7.493741735284747,-41.44702640314674
1694133750.8919928,-0.2631025,0.01488470703125,0.96587181640625,0.31468070312499996,31.0577462890625,-1.6925495703125,-37.74202356478689,-6.699601470148028,-39.47243537372779
1694133750.9119937,-0.267741171875,0.01769232421875,0.9686183984375,0.58170951171875,29.61579072265625,-1.13560376953125,-38.85332153585623,-6.3744207274722475,-40.723164962228765
1694133750.9320066,-0.2781171484375,0.0183637109375,0.96587181640625,0.36045707031249996,29.3792794921875,-2.99717603515625,-40.36142690389823,-7.489654031671465,-40.04507219269752
1694133750.9519985,-0.29539009765625,0.0183637109375,0.958242421875,0.09342826171874996,32.0648263671875,-1.585738046875,-39.62875196835135,-6.957879940362873,-40.509335591257084
1694133750.9720006,-0.31113716796875,0.01842474609375,0.95213890625,0.04002249999999996,28.65448701171875,0.733597890625,-40.87724879842948,-7.702521442804279,-39.615797184518804
1694133750.9920056,-0.32761666015625,0.0183637109375,0.9434719140625,0.04002249999999996,25.3814767578125,-1.2500446875,-40.852777191617946,-6.824460622491777,-39.34413477179908
1694133751.012011,-0.333659140625,0.018241640625,0.9432277734375,0.31468070312499996,28.19672333984375,-0.8380573828125,-41.27522286276052,-6.5206234027652155,-39.31504325861548
1694133751.032014,-0.32602974609375,0.01439642578125,0.95366478515625,1.06999076171875,28.845221875,-0.32688794921875,-42.52336775961111,-7.434299649347246,-39.033483307199475
1694133751.0520172,-0.3412275,0.0209271875,0.94756126953125,0.58170951171875,27.64740693359375,0.35975755859375,-41.70910368527029,-6.715869562433184,-38.404136976266855
1694133751.0720284,-0.36301705078125,0.017753359375,0.93553734375,0.23838675781249996,41.77704560546875,-0.64732251953125,-43.721502109952915,-7.622436086358966,-37.84260096442603
1694133751.0920236,-0.380045859375,0.01750921875,0.92626,0.74955619140625,26.9989083984375,-2.20371900390625,-42.760341369352325,-6.23018000969881,-38.02124725409888
1694133751.112057,-0.40720650390625,0.02367376953125,0.90996361328125,-0.12782417968750004,18.316657421875,0.2910930078125,-43.57788302633475,-6.884691061456621,-37.90790381952857
1694133751.132031,-0.41300484375,0.01659369140625,0.90642357421875,0.11631644531249996,13.89923798828125,-2.6080769140625,-44.8473863295574,-6.847747392511309,-37.09443367988013
1694133751.1520305,-0.39634224609375,0.0181195703125,0.91716576171875,0.20786917968749996,15.5548166015625,-1.18900953125,-43.53883503841971,-6.307079414972247,-37.542758543405526
1694133751.1720238,-0.38364693359375,0.01451849609375,0.93193626953125,0.26127494140624996,19.232184765625,2.503617421875,-45.18296710128592,-7.059714934503497,-36.53751646503638
1694133751.1920412,-0.38828560546875,0.02574896484375,0.9390773828125,0.38334525390624996,21.04035126953125,-0.731245859375,-44.04100355026053,-7.10472433001131,-37.28289582807349
1694133751.212045,-0.415202109375,0.01927923828125,0.91850853515625,-0.42537056640625004,21.97113740234375,-0.11326490234374997,-44.3109538550701,-7.339525214288653,-36.449170234323496
1694133751.2320611,-0.44785591796875,0.01940130859375,0.8868312890625,0.6045976953125,13.128669140625,0.9319621484375,-44.898474195035924,-7.646088862237873,-36.45225250373267
1694133751.252056,-0.47404,0.02159857421875,0.871816640625,-0.32618843750000004,1.92871796875,-0.6854694921875,-45.12755099435232,-7.129802043390216,-35.788499845041265
1694133751.2720566,-0.48093697265625,0.01946234375,0.864980703125,-0.51692330078125,-9.29412138671875,-1.05930982421875,-46.19596476803397,-7.65704876360506,-35.694279725778564
1694133751.2920609,-0.466959921875,0.01891302734375,0.8760891015625,0.28416312499999996,-14.7491384765625,0.26820482421875,-44.91305394979667,-6.994022366144122,-36.66426058674049
1694133751.312085,-0.44327828125,0.0198285546875,0.89482689453125,-0.28041207031250004,-18.121330859375,0.489457265625,-44.78563044344901,-7.673038633233965,-36.5762894398899
1694133751.332069,-0.42417427734375,0.02062201171875,0.90923119140625,-0.18122994140625004,-21.56218779296875,-0.86094556640625,-44.03079121102713,-6.8007000072574035,-36.114711317209235
1694133751.3520849,-0.43357369140625,0.0198285546875,0.89848900390625,-0.7686933203125,-24.07988798828125,-2.2723835546875,-44.0953082456951,-6.720681977960529,-37.87352801044654
1694133751.372078,-0.43149849609375,0.02086615234375,0.89702416015625,-0.07441841796875004,-32.0831228515625,-1.9977253515625,-44.80255601437185,-7.632729972589435,-37.186054913888924
1694133751.3920763,-0.41794869140625,0.01952337890625,0.9039211328125,-0.44825875000000004,-38.59862578125,0.4131633203125,-43.06946946188162,-6.949426379327716,-37.95814519294166
1694133751.41209,-0.39853951171875,0.016776796875,0.9119777734375,-0.71528755859375,-40.8569265625,-2.53941236328125,-43.437272176969515,-7.67086036956209,-38.68681873566627
1694133751.432124,-0.3635663671875,0.0186078515625,0.93193626953125,-0.28041207031250004,-39.99480498046875,-2.7301472265625,-42.01560282198905,-6.686555082452716,-38.48828196467017
1694133751.452097,-0.33335396484375,0.01805853515625,0.947500234375,-0.44825875000000004,-41.04766142578125,-0.57865796875,-41.05961103304862,-6.422505804620686,-39.91389434308814
1694133751.4721248,-0.32480904296875,0.0189740625,0.9485988671875,-0.49403511718750004,-42.3217703125,-2.65385328125,-41.708394111539825,-7.941898984308184,-38.61456672248267
1694133751.4920926,-0.3203534765625,0.01848578125,0.9464016015625,-0.79158150390625,-41.55120146484375,-3.05821119140625,-40.06193327877615,-6.698082420831623,-40.07699541242408
1694133751.512109,-0.30771919921875,0.01927923828125,0.94817162109375,-0.02864205078125004,-45.30486357421875,-0.006453378906249974,-40.39362156136893,-7.680953386651934,-39.945264685861574
1694133751.5321143,-0.2847089453125,0.014335390625,0.956289296875,0.09342826171874996,-47.3724294921875,-2.02061353515625,-38.25676476669119,-7.191284543390216,-40.47613871344947
1694133751.5521278,-0.25706001953125,0.01158880859375,0.96745873046875,0.01713431640624996,-42.46672880859375,-1.42552076171875,-38.28823299838065,-6.95602220501131,-42.09233304401588
1694133751.5721135,-0.21964546875,0.01555609375,0.985097890625,-0.12782417968750004,-39.67437041015625,-0.8685749609375,-37.704192326749784,-7.087360548761309,-41.97846907343482
1694133751.5921116,-0.2093915625,0.01409125,0.98784447265625,-0.28041207031250004,-38.83513701171875,0.4589396875,-36.36742586581228,-6.836396383233966,-42.28778682111549
1694133751.6121135,-0.1968183203125,0.01549505859375,0.990957265625,-0.28041207031250004,-37.6830984375,-0.58628736328125,-36.306335712125765,-7.596005664972247,-42.11658316926002
1694133751.632127,-0.1840009375,0.01610541015625,0.99333763671875,-0.5703290625,-32.44170439453125,-1.63914380859375,-34.802496345060334,-6.746961219659747,-42.129382095163336
1694133751.6521223,-0.18186470703125,0.014823671875,0.98796654296875,-0.30330025390625004,-34.9212576171875,-1.1432331640625,-34.50039306844901,-7.575519531671465,-41.87286082111549
1694133751.6721272,-0.18155953125,0.01525091796875,0.9783840234375,-0.27278267578125004,-39.8040701171875,-0.06748853515624997,-33.78118898776052,-7.420044492608967,-43.54806771442603
1694133751.692125,-0.1694745703125,0.014823671875,0.9835109765625,-0.74580513671875,-38.8580251953125,-1.28819166015625,-32.945558601041775,-6.918301408136308,-43.815179254709236
1694133751.712155,-0.14933296875,0.01476263671875,0.993398671875,-0.8907636328125,-40.20842802734375,-2.1503132421875,-32.78396126693533,-7.282145143487871,-42.77722182612037
1694133751.7321537,-0.11612984375,0.0139691796875,1.00469017578125,-0.15834175781250004,-40.54412138671875,0.72596849609375,-31.526340028409937,-6.8505203593081845,-44.10436041462135
1694133751.7521436,-0.09073921875,0.0129926171875,1.01091576171875,-0.79158150390625,-34.0057302734375,0.024064199218750026,-31.2451598373699,-7.798854123956621,-44.20981796772193
1694133751.7721493,-0.0727948828125,0.01122259765625,1.01170921875,-1.11201607421875,-31.72454130859375,-1.85276685546875,-30.437144307950952,-7.118868750421466,-44.0834968013401
1694133751.7921703,-0.06553169921875,0.01293158203125,1.00725365234375,-1.211198203125,-31.67876494140625,-0.45658765625,-29.441163565031033,-6.9400196840152155,-44.97748007306861
1694133751.81215,-0.06138130859375,0.010429140625,1.00603294921875,-0.79158150390625,-32.56377470703125,-2.501265390625,-29.410874617032984,-8.251116486749591,-44.40405149360084
1694133751.832152,-0.04587837890625,0.0095746484375,1.011953359375,-1.15779244140625,-26.50603544921875,-1.9824665625,-28.717449577115993,-6.920111665948809,-45.60305032807349
1694133751.852154,-0.01084419921875,0.008231875,1.0211086328125,-1.43245064453125,-22.72948515625,-1.3263386328125,-29.102361490324,-7.451106862726155,-44.872096133493415
1694133751.8721628,0.0024614648437499996,0.0095746484375,1.02324486328125,-1.42482125,-18.18999541015625,0.19954027343750003,-27.578963242155055,-6.686923395929279,-45.16776744208717
1694133751.8921595,0.01039603515625,0.0078656640625,1.0235500390625,-1.577409140625,-12.811272265625,1.54994310546875,-27.507480495695095,-6.941021165460528,-46.01629771027564
1694133751.9121644,0.01051810546875,0.00731634765625,1.02055931640625,-1.180680625,-8.0047537109375,-0.69309888671875,-28.578654005704863,-7.682166728937089,-45.31639277118873
1694133751.9321716,0.01442435546875,0.0054242578125,1.01921654296875,-1.03572212890625,-4.754631640625,1.45839037109375,-26.78106985775564,-7.289336479425372,-46.16705160590552
1694133751.9521723,0.01088431640625,0.0042035546875,1.0151271875,-0.18122994140625004,-2.9998708984375,-0.9906452734375,-27.83895209860037,-8.017593970148027,-45.467595464670175
1694133751.9721718,-0.0018109960937500004,0.0056683984375,1.00896263671875,-0.44825875000000004,0.5096505859375,-1.82224927734375,-26.266820628507592,-6.733042802667558,-45.487302329172124
1694133751.9921765,-0.01157662109375,0.008476015625,1.00188255859375,-0.30330025390625004,-2.10723173828125,-0.7465046484375,-26.576325487882595,-6.885321864190996,-45.12773952924537
1694133752.0121825,-0.0051679296875,0.007011171875,1.0042629296875,-0.02864205078125004,-2.80913603515625,-1.22715650390625,-26.357003815519313,-7.849473402276934,-44.94629991742896
1694133752.0321796,0.0024004296874999996,0.0039594140625,1.0081691796875,-0.27278267578125004,0.82245576171875,-0.548140390625,-26.35150678353689,-6.933864628839434,-45.490746027292246
1694133752.0521858,0.0032549218749999996,0.0020673242187499996,1.00798607421875,0.38334525390624996,1.11237275390625,0.83278001953125,-27.905104825529083,-7.550050716241778,-44.94944739228248
1694133752.0722065,0.00014212890624999957,0.004325625,1.00566673828125,0.78007376953125,1.013190625,0.10035814453125003,-26.35525285812185,-7.108420788019123,-46.515410579782476
1694133752.0922003,-4.097656250000043e-05,0.00524115234375,1.006338125,0.90214408203125,2.4322580078125,0.611527578125,-26.810172952726344,-7.48430325969881,-45.722981899606694
1694133752.1122043,0.0014238671874999996,0.005546328125,1.00774193359375,0.62748587890625,4.30145966796875,-1.1737507421875,-26.4089232078533,-7.220907510187089,-44.95115423603248
1694133752.1322043,0.010335,0.00499701171875,1.012441640625,1.413313515625,7.7423166015625,-1.7535847265625,-26.549076177091578,-6.74050238860506,-45.558173262033456
1694133752.152207,0.0233965234375,0.00450873046875,1.02245140625,1.83293021484375,11.99951875,1.09217943359375,-27.696137433927515,-7.413437892999591,-45.056853454660406
1694133752.1722207,0.0194902734375,0.0035932031249999996,1.0220851953125,2.145735390625,18.3929513671875,-1.97483716796875,-26.331172730802518,-6.320312062433185,-45.90722948603248
1694133752.1922233,0.01649955078125,0.00902533203125,1.025136953125,2.389876015625,26.15204560546875,-2.989546640625,-27.5899776667156,-7.660879277765216,-44.9649051430149
1694133752.2122538,0.007649453125,0.00719427734375,1.02690697265625,1.55827201171875,31.8969796875,1.771195546875,-27.630474227384546,-7.100270886163653,-44.82907504218482
1694133752.2322338,-0.0031537695312500004,0.01110052734375,1.0267238671875,2.04655326171875,39.5416330078125,0.4131633203125,-28.444576743009545,-7.134370939874591,-44.23805705634498
1694133752.2522662,-0.024088828125,0.0110394921875,1.021230703125,1.75663626953125,44.49311005859375,-1.05930982421875,-30.654996987638455,-7.523977781183186,-43.792442567941656
1694133752.2722318,-0.0557050390625,0.01085638671875,1.00945091796875,2.0999590234375,45.0958322265625,0.78700365234375,-29.990554442472437,-6.493970914483965,-45.4488244267063
1694133752.2922382,-0.08359810546875,0.01329779296875,0.99809837890625,1.55827201171875,42.1356271484375,1.06166185546875,-32.34870403890799,-7.567663941339435,-44.24065469025611
1694133752.3122375,-0.10410591796875,0.0131146875,0.9942531640625,1.58878958984375,43.69965302734375,-0.58628736328125,-31.60003737899588,-6.769972218194904,-41.40175200788306
1694133752.3322456,-0.11948677734375,0.01525091796875,0.9947414453125,1.43620169921875,42.6239083984375,-2.85984693359375,-32.45998726693533,-6.572517913019123,-43.94082494587134
1694133752.3522491,-0.12784859375,0.01659369140625,0.998769765625,1.3370195703125,44.0582345703125,1.06929125,-34.50679967977713,-7.397469331964434,-43.302846479806895
1694133752.3722446,-0.1457929296875,0.01671576171875,0.9949855859375,0.87162650390625,46.60645234375,-0.82279859375,-34.49493110970877,-6.459568496026934,-43.263278909372325
1694133752.3922453,-0.165690390625,0.01708197265625,0.990957265625,0.67326224609375,47.5982736328125,-1.4484089453125,-36.432962705533974,-7.517333363214434,-42.31605149823951
1694133752.41225,-0.18937203125,0.0179975,0.9818019921875,0.33756888671874996,45.62226044921875,-0.88383375,-35.58061454086111,-6.669760032648028,-43.61883279328345
1694133752.4322863,-0.1960858984375,0.01244330078125,0.9839992578125,0.78007376953125,48.31543671875,-0.98301587890625,-36.56948916036795,-6.57161561956209,-41.773429966379155
1694133752.4523153,-0.20395943359375,0.01653265625,0.9877834375,0.70377982421875,52.2064279296875,-0.014082773437499974,-40.665412349943146,-7.840356540948811,-40.98431833393287
1694133752.4723072,-0.22239205078125,0.01720404296875,0.98369408203125,0.772444375,57.3028634765625,1.4812785546875,-38.013857273282994,-6.766374141046466,-40.90547401569556
1694133752.492261,-0.24424263671875,0.01750921875,0.97795677734375,0.802961953125,58.53119599609375,1.62623705078125,-40.480475240446076,-7.409054168390215,-40.80655215241431
1694133752.512266,-0.28110787109375,0.01952337890625,0.96141625,0.87162650390625,58.3862375,-0.52525220703125,-40.07414379598807,-6.363565021417559,-41.42208566095923
1694133752.5322795,-0.327799765625,0.01720404296875,0.9340725,0.7266680078125,54.327399609375,-0.487105234375,-40.87189388595389,-7.2607873881167775,-39.54322236225318
1694133752.5522768,-0.350748984375,0.01409125,0.92577171875,0.9708086328125,49.78028046875,1.7864543359375,-41.49033591317557,-6.760365114679278,-38.06774837043189
1694133752.5722795,-0.357584921875,0.01964544921875,0.93065453125,0.6045976953125,48.895270703125,-0.14378248046874997,-42.11083963619803,-7.176393507745685,-38.39895223688697
1694133752.5922844,-0.36741158203125,0.0200726953125,0.931875234375,0.36045707031249996,50.2838205078125,-1.47129712890625,-44.26447074203299,-7.765235093194903,-37.87537292988013
1694133752.6122856,-0.38022896484375,0.0186078515625,0.92967796875,0.9708086328125,51.1993478515625,1.649125234375,-43.66940883920096,-6.9996310653628715,-37.63988151764869
1694133752.6322877,-0.3994550390625,0.0198285546875,0.91972923828125,0.7266680078125,49.90235078125,-0.14378248046874997,-45.48652022799491,-7.782546410577716,-35.86634284296607
1694133752.6522958,-0.44333931640625,0.0227582421875,0.89031029296875,0.67326224609375,44.90509736328125,-0.43369947265625,-44.622287605680455,-7.313663010187091,-35.673014442819586
1694133752.6723151,-0.4651288671875,0.0220258203125,0.87358666015625,0.28416312499999996,40.7928537109375,-1.0059040625,-45.44041584322928,-6.75829729094881,-35.268252746286386
1694133752.6923058,-0.4570722265625,0.01744818359375,0.88475609375,0.50541556640625,41.27350556640625,2.6104289453125,-47.4883206005535,-8.033397717706622,-35.574107467233645
1694133752.7123098,-0.4496259375,0.0195844140625,0.8973293359375,0.26127494140624996,45.5230783203125,0.07746996093750003,-46.79647717196463,-7.277624833429279,-34.523057608591074
1694133752.7323303,-0.46836373046875,0.02172064453125,0.889394765625,-0.11256539062500004,48.62824189453125,-0.84568677734375,-49.23414642403983,-8.140032544855059,-33.14124602936744
1694133752.75232,-0.4941816015625,0.018729921875,0.8633937890625,0.35282767578124996,47.78900849609375,0.40553392578125,-48.25066369235037,-6.970355925714434,-34.08992430195045
1694133752.7723181,-0.51694771484375,0.02257513671875,0.849843984375,0.23075736328124996,47.0184396484375,0.74122728515625,-49.02633765890311,-6.805410179620685,-32.968191414621344
1694133752.792317,-0.5369062109375,0.01879095703125,0.83403587890625,0.78007376953125,46.12580048828125,0.72596849609375,-50.58307907003592,-7.617735426202716,-31.936676263254157
1694133752.8123202,-0.5647382421875,0.02880072265625,0.80913353515625,-0.005753867187500039,39.73236787109375,-1.02879224609375,-50.44036937154959,-7.3183457518863095,-31.61589479316138
1694133752.8323236,-0.59531685546875,0.02147650390625,0.79143333984375,0.21549857421874996,30.2642892578125,-0.19718824218749997,-51.671509664274204,-8.38057811565584,-30.26108912067603
1694133752.8523266,-0.60898873046875,0.01976751953125,0.79228783203125,0.13920462890624996,25.24414765625,-1.10508619140625,-51.0031247847576,-7.038676397882403,-31.449304130075443
1694133752.8723302,-0.60312935546875,0.01988958984375,0.80565453125,0.26127494140624996,23.60382783203125,-0.57865796875,-51.335601420743934,-7.593063674737873,-29.122668509103764
1694133752.8923361,-0.59885689453125,0.02159857421875,0.7991848046875,0.23838675781249996,20.025641796875,-0.82279859375,-51.69065897958182,-7.900462961847248,-30.236268141672124
1694133752.912335,-0.61423775390625,0.0170209375,0.787588125,0.74955619140625,16.53900849609375,-0.975386484375,-52.02639095174979,-7.34672796673006,-30.19438237873267
1694133752.932387,-0.6195478125,0.03209662109375,0.77922630859375,-0.8907636328125,10.02350556640625,-0.548140390625,-53.51674382992362,-8.230270936456623,-29.96205322858619
1694133752.95235,-0.650553671875,0.01842474609375,0.76006126953125,-0.32618843750000004,1.82953583984375,-1.92906080078125,-52.032779223234165,-7.769168875909747,-29.097945364816656
1694133752.9723504,-0.6479901953125,0.02086615234375,0.7635402734375,-0.27278267578125004,-6.585686328125,-0.5023640234375,-51.639853019498815,-8.586213540948808,-28.749405508737556
1694133752.9923508,-0.63083931640625,0.02086615234375,0.7796535546875,-0.539811484375,-13.57421171875,1.5575725,-51.839171171720494,-7.5120110682925585,-28.625796928537362
1694133753.0123544,-0.621745078125,0.01976751953125,0.788320546875,-0.34907662109375004,-14.05486357421875,-1.2042683203125,-51.33415959530448,-8.02804906829256,-29.860694325265875
1694133753.0323584,-0.62278267578125,0.0215375390625,0.7866115625,0.16209281249999996,-19.53276884765625,2.92323412109375,-52.12386174996756,-7.594350200616779,-30.00092045978736
1694133753.0523636,-0.6156415625,0.020194765625,0.78807640625,0.16209281249999996,-25.33110869140625,1.1150676171875,-50.69674183456229,-7.128851737237872,-31.121657916696538
1694133753.07238,-0.603678671875,0.023856875,0.7960109765625,-0.32618843750000004,-27.154533984375,-0.11326490234374997,-51.336468258146276,-8.47069858782381,-30.965433188302985
1694133753.092382,-0.60569283203125,0.01848578125,0.795400625,-0.08204781250000004,-34.7534109375,1.527054921875,-50.171956718107204,-7.566681998468342,-30.58206342511939
1694133753.112379,-0.5908612890625,0.0217816796875,0.80516625,0.01713431640624996,-42.08525908203125,0.7793742578125,-49.552120080411896,-6.990124880304279,-32.356718118356696
1694133753.1323843,-0.572916953125,0.0212933984375,0.81816673828125,-0.42537056640625004,-44.8699880859375,-0.5176228125,-50.27468426925467,-7.874258373956621,-30.695705529245366
1694133753.1523817,-0.54288765625,0.019950625,0.836660390625,-0.49403511718750004,-47.1282888671875,-0.20481763671874997,-48.69995462154959,-7.06013839641756,-32.541461530344
1694133753.172385,-0.53061958984375,0.0203168359375,0.842519765625,0.36045707031249996,-51.14897978515625,1.0235148828125,-49.53805719125174,-7.805869343194902,-32.87162111640357
1694133753.1923866,-0.51169869140625,0.02196478515625,0.85234642578125,-0.539811484375,-55.108635546875,0.428422109375,-47.54250193063162,-7.318858937433184,-33.460917135568614
1694133753.2123902,-0.47971626953125,0.02196478515625,0.87419701171875,-0.15071236328125004,-56.26067412109375,-0.9906452734375,-46.17977372311209,-7.325837706964434,-35.3644808251438
1694133753.2324185,-0.455241171875,0.01183294921875,0.88591576171875,0.70377982421875,-54.79583037109375,-1.04405103515625,-46.88048778646658,-8.319408530206623,-36.359379756540285
1694133753.2524385,-0.42515083984375,0.0220258203125,0.90923119140625,0.04002249999999996,-50.49285185546875,-0.72361646484375,-44.853858047941195,-6.995048811944903,-35.8035254074192
1694133753.2724166,-0.39426705078125,0.01549505859375,0.92595482421875,-0.08204781250000004,-45.6634451171875,-0.17430005859374997,-45.419118443082795,-7.921588803644123,-36.27261520575904
1694133753.2924035,-0.3870038671875,0.0203168359375,0.9298000390625,-0.40248238281250004,-43.09233916015625,-1.158491953125,-43.75418628780936,-7.033025180597248,-36.996866972726814
1694133753.3124218,-0.38077828125,0.0212933984375,0.92900658203125,0.42912162109374996,-43.97734892578125,-2.28001294921875,-42.57223384213065,-7.789455921808185,-37.29805653058814
1694133753.3324144,-0.366862265625,0.0188519921875,0.93340111328125,-0.44825875000000004,-43.7408376953125,-1.05930982421875,-42.19411762679861,-7.080484097101153,-38.14003645649146
1694133753.3524184,-0.35569283203125,0.01830267578125,0.934804921875,-0.5703290625,-44.48088896484375,0.5352336328125,-41.48572245199393,-7.122540101007402,-38.77450846528052
1694133753.3724394,-0.33677193359375,0.01598333984375,0.9420070703125,0.21549857421874996,-46.5484548828125,-0.35740552734375,-41.45644228292654,-7.906483132745684,-39.16450572834204
1694133753.392423,-0.30637642578125,0.0161664453125,0.9554348046875,0.30705130859374996,-44.0307546875,0.14613451171875003,-40.353773568204865,-6.802860759210528,-39.398212769235606
1694133753.4124358,-0.28415962890625,0.016776796875,0.966543203125,-0.50166451171875,-39.483635546875,0.046952382812500026,-39.76900757015799,-7.318583832940997,-40.31131321235084
1694133753.4324303,-0.2656659765625,0.01683783203125,0.9744777734375,-0.47114693359375004,-35.9283376953125,1.0235148828125,-39.30390002926443,-6.866965608819903,-40.338514399728766
1694133753.452447,-0.259928671875,0.02025580078125,0.9739894921875,-0.5703290625,-36.98882353515625,0.28346361328125,-37.96620272323416,-6.223961334405841,-40.836923975656504
1694133753.4724412,-0.25474068359375,0.01848578125,0.96916771484375,-0.50166451171875,-37.12615263671875,0.046952382812500026,-38.4044017255535,-7.231852016534747,-41.049079132150645
1694133753.4924464,-0.24802681640625,0.0173871484375,0.968496328125,-0.59321724609375,-37.24822294921875,-0.63206373046875,-36.62346306966971,-6.589864825128497,-40.637638404245365
1694133753.5124426,-0.22507759765625,0.0154340234375,0.97527123046875,0.16209281249999996,-38.9800955078125,-1.0821980078125,-37.1720135335369,-7.27828634954256,-41.69041097284888
1694133753.5324578,-0.20884224609375,0.01512884765625,0.9803371484375,-0.66951119140625,-39.46074736328125,1.0845500390625,-35.2744717510662,-6.363147735284747,-42.26475784394263
1694133753.552455,-0.19602486328125,0.01653265625,0.98344994140625,-0.34907662109375004,-38.1866384765625,-0.2582233984375,-34.1631039463787,-6.8094409471988095,-41.85747899543189
1694133753.5724583,-0.1772870703125,0.01720404296875,0.9871730859375,-1.0128339453125,-38.04167998046875,0.07746996093750003,-34.751560957365015,-7.872527038995684,-42.859875204050056
1694133753.592476,-0.159342734375,0.0178754296875,0.99150658203125,-0.692399375,-40.71196806640625,-0.20481763671874997,-33.56281840243338,-6.666532205987872,-43.88868759198951
1694133753.6124995,-0.1440839453125,0.01549505859375,0.992422109375,-0.98994576171875,-38.23241484375,-0.70072828125,-33.63094017867849,-7.37771409563631,-44.064757649362555
1694133753.6324632,-0.1245526953125,0.013847109375,0.9995021875,-1.11201607421875,-35.394280078125,0.23768724609375003,-31.923735299528104,-6.359989734796466,-43.555598464670176
1694133753.652468,-0.101725546875,0.01305365234375,1.00688744140625,-1.03572212890625,-32.5408865234375,-0.60154615234375,-31.18263890060232,-6.8708798529605275,-44.18086046259497
1694133753.6724687,-0.082682578125,0.01409125,1.012441640625,-0.59321724609375,-29.17632353515625,-2.05113111328125,-34.17407576388357,-7.596455257257402,-43.79602639924048
1694133753.6924758,-0.07346626953125,0.01171087890625,1.01170921875,-0.74580513671875,-25.88042509765625,-2.12742505859375,-30.103425107755644,-6.438539157648027,-44.087351756662365
1694133753.7124875,-0.06553169921875,0.0111615625,1.00957298828125,-0.20411812500000004,-23.889153125,-1.63914380859375,-31.26339406027029,-7.76834355315584,-43.55755414948462
1694133753.732482,-0.0605878515625,0.01634955078125,1.00737572265625,-1.11201607421875,-26.26952421875,-1.08982740234375,-29.07689809152029,-6.594555470636309,-44.40451257929419
1694133753.7524889,-0.05930611328125,0.01146673828125,1.0008449609375,-0.91365181640625,-25.1861501953125,-0.21244703124999997,-28.534808557218533,-7.270211122491778,-45.10456680292701
1694133753.7724943,-0.04819771484375,0.00902533203125,1.00273705078125,-1.44770943359375,-24.3926931640625,-0.426070078125,-28.343936761320094,-7.530037955987872,-45.470133801828375
1694133753.792495,-0.03049751953125,0.00939154296875,1.00786400390625,-1.943620078125,-26.4373708984375,-2.6691120703125,-27.779475331388454,-6.7192536561831835,-45.959427369211184
1694133753.812514,-0.01438423828125,0.01158880859375,1.01299095703125,-1.89021431640625,-22.72948515625,-1.1127155859375,-28.325906644865015,-7.805598997491776,-45.11391293244361
1694133753.8325064,0.01027396484375,0.01036810546875,1.02141380859375,-3.530534140625,-14.39055693359375,-0.21244703124999997,-27.030125343595486,-7.281033159112872,-45.492829422677985
1694133753.852522,0.035481484375,0.0115277734375,1.04338646484375,-1.84443794921875,-1.77153837890625,-0.55576978515625,-26.98511544271658,-7.70260475969881,-44.37305836408424
1694133753.8725226,0.0502519921875,-0.01013970703125,1.017324453125,-0.22700630859375004,-0.7415701171875,-1.6620319921875,-26.641593781949975,-6.833932964288653,-45.48607210163306
1694133753.8925073,0.0005083398437499996,0.005058046875,1.00566673828125,-0.8144696875,0.8453439453125,-0.33451734375,-26.589804189420683,-7.369332695245683,-45.88669603949928
1694133753.912514,-0.0018720312500000004,0.00450873046875,1.0042629296875,-0.50166451171875,1.06659638671875,-0.10563550781249997,-27.540679264860135,-7.677851972101154,-45.08991215632056
1694133753.9325376,-0.00413033203125,0.00402044921875,1.004385,-0.12782417968750004,-2.069084765625,0.054581777343750026,-26.566684213834744,-7.034660615655841,-44.83442862995338
1694133753.9524314,-0.0032148046875000004,0.00487494140625,1.00591087890625,0.28416312499999996,-0.3753591796875,-1.86802564453125,-27.450007597501735,-7.526856922296465,-45.60036432770728
1694133753.9724257,0.0010576562499999996,0.0036542382812499996,1.00627708984375,-0.30330025390625004,2.24152314453125,-0.792281015625,-26.97245165328787,-6.643979988702716,-46.11646664582252
1694133753.9924245,0.0028887109374999996,0.0035321679687499996,1.006093984375,0.43675101562499996,3.3172677734375,-1.02879224609375,-26.585711888883573,-6.475851346612871,-46.487537106760016
1694133754.0125077,0.0034380273437499996,0.0036542382812499996,1.0098781640625,1.6269365625,2.0965646484375,-2.78355298828125,-28.09327795065115,-7.915217770929278,-45.74945678595924
1694133754.0324404,0.01418021484375,0.0072553125,1.0181789453125,1.4590898828125,8.9019845703125,-2.21897779296875,-26.663671198942165,-7.175033176690997,-46.40042036030005
1694133754.0524368,0.02296927734375,0.00817083984375,1.02214623046875,2.023665078125,16.5161203125,-3.25657544921875,-28.396033405729273,-7.8012256547183405,-45.79137846821021
1694133754.0724707,0.02211478515625,0.0035932031249999996,1.022695546875,2.511946328125,19.110114453125,-2.0282429296875,-27.154456306730253,-7.047180162530841,-46.10045439679908
1694133754.0924385,0.0199785546875,0.00731634765625,1.02727318359375,3.49613822265625,28.3416818359375,0.15376390625000003,-28.024232135953884,-6.734982262140216,-46.08696829755591
1694133754.112441,0.0199785546875,0.006522890625,1.0360012109375,1.19206107421875,40.4571603515625,0.054581777343750026,-28.429345849821072,-7.256596529230059,-43.464171839914314
1694133754.132452,0.01668265625,0.01134466796875,1.04094505859375,2.48905814453125,52.9083322265625,1.6033488671875,-29.440994278287867,-7.400420140558182,-44.383981343820565
1694133754.1525064,-0.0146894140625,0.0115277734375,1.03288841796875,2.3440996484375,59.03473603515625,0.17665208984375003,-31.366531117887476,-7.8449529696597455,-43.325705548410404
1694133754.1724634,-0.05832955078125,0.01598333984375,1.0123195703125,1.95500052734375,62.9028390625,-1.6315144140625,-31.258475880826932,-6.78758849846834,-44.43744758490943
1694133754.1924753,-0.120280234375,0.01830267578125,0.984121328125,1.2454668359375,60.11811005859375,-0.47947583984375,-32.58739733798025,-7.926192069269122,-43.64213451581764
1694133754.2124999,-0.15720650390625,0.015311953125,0.9693508203125,1.39042533203125,53.289801953125,-0.73887525390625,-33.15789830184744,-7.0981712972964655,-42.52458970490454
1694133754.2324739,-0.1677655859375,0.0166547265625,0.97380638671875,1.4896074609375,51.63422333984375,-2.34104810546875,-34.18804496652029,-6.858259982355059,-42.94514039789771
1694133754.252508,-0.18723580078125,0.01634955078125,0.973379140625,0.06291068359374996,50.4516671875,1.2371379296875,-36.439320630338656,-7.693652446222249,-42.25108569709205
1694133754.2724736,-0.196452109375,0.01683783203125,0.97820091796875,0.7266680078125,50.21515595703125,0.9929973046875,-35.52207523116873,-7.218460641046466,-41.88554651655006
1694133754.2924795,-0.20579048828125,0.0170209375,0.97990990234375,0.8487383203125,49.97101533203125,-0.18192945312499997,-36.939944311979275,-7.738524661554278,-40.91145620453834
1694133754.312494,-0.21799751953125,0.01744818359375,0.9776516015625,0.13920462890624996,54.2511056640625,-0.31162916015625,-37.24170214913748,-7.281559638605059,-39.56905097785377
1694133754.332482,-0.23234078125,0.01720404296875,0.97783470703125,0.48252738281249996,58.599860546875,-0.37266431640625,-38.24576505477713,-6.874248064386308,-40.63894307026099
1694133754.3525236,-0.2515058203125,0.017753359375,0.97319603515625,0.99369681640625,59.32465302734375,-0.13615308593749997,-40.26918906503104,-7.884643792413653,-39.45364369294166
1694133754.3724904,-0.2822675390625,0.01891302734375,0.96092796875,0.26127494140624996,63.69629609375,0.27583421875,-40.16345683126639,-7.5801991644839655,-39.00723265192603
1694133754.3925643,-0.31632515625,0.01952337890625,0.947011953125,0.43675101562499996,64.5355294921875,-0.14378248046874997,-41.493134215055456,-7.6747466420230275,-38.60143935163306
1694133754.4125059,-0.35874458984375,0.0200726953125,0.9254055078125,0.802961953125,60.83527314453125,-0.5023640234375,-41.75004223849295,-7.166087750421465,-35.425830808542244
1694133754.4324954,-0.397868125,0.01940130859375,0.899648671875,0.43675101562499996,51.0772775390625,-1.127974375,-43.43905367526053,-7.126020486261309,-38.44675295429419
1694133754.4525154,-0.40085884765625,0.01634955078125,0.904775625,-0.28041207031250004,52.1148751953125,0.14613451171875003,-45.31837110226249,-7.922610893976152,-36.432290164987556
1694133754.4725308,-0.41587349609375,0.01952337890625,0.90263939453125,-0.12782417968750004,49.92523896484375,-0.88383375,-44.95005974044607,-7.491859794855059,-37.1475525550022
1694133754.4925191,-0.42295357421875,0.01781439453125,0.90703392578125,0.13920462890624996,50.09308564453125,-1.585738046875,-46.76303259444998,-8.451762731378498,-35.54978403559302
1694133754.5126102,-0.43113228515625,0.022147890625,0.90569115234375,1.06999076171875,52.740485546875,-2.562300546875,-45.362894424894314,-6.957262018487873,-35.70623962824439
1694133754.532542,-0.467936484375,0.02208685546875,0.875722890625,0.36045707031249996,49.993903515625,-2.14268384765625,-46.58140574789237,-7.666320538507403,-34.492858820627205
1694133754.5525224,-0.5029706640625,0.02294134765625,0.8550930078125,0.11631644531249996,43.7225412109375,-0.5023640234375,-47.24962122201347,-8.216180444269122,-32.5362664789524
1694133754.5725217,-0.5198163671875,0.0193402734375,0.84587669921875,0.58170951171875,40.3350900390625,0.55812181640625,-48.41473632955741,-7.40467591985506,-33.39572268122291
1694133754.5925589,-0.52585884765625,0.019950625,0.8467922265625,-0.10493599609375004,39.44245087890625,1.82460130859375,-49.84049105978202,-8.107033797296467,-32.49405004120826
1694133754.6125672,-0.53379341796875,0.02306341796875,0.84258080078125,-0.12782417968750004,38.60321748046875,0.24531664062500003,-49.02855367526053,-7.510334176202717,-32.960470549142826
1694133754.6325474,-0.54282662109375,0.0239789453125,0.838125234375,0.558821328125,36.1541818359375,0.87855638671875,-49.40592408492849,-8.208510127374591,-32.08454651325416
1694133754.652588,-0.55845162109375,0.0242230859375,0.82781029296875,-0.20411812500000004,33.270270703125,-0.09037671874999997,-50.00776556075858,-7.607843756280841,-30.624764325998296
1694133754.6725545,-0.59324166015625,0.0210492578125,0.8013820703125,-0.59321724609375,27.23541962890625,1.94667162109375,-50.54323898287772,-7.4735757118472455,-31.025076663644782
1694133754.692551,-0.60929390625,0.02843451171875,0.7943019921875,-0.17360054687500004,17.43164765625,0.14613451171875003,-51.56610146932792,-8.377076574640215,-31.304051384958257
1694133754.712687,-0.59513375,0.01793646484375,0.8022365625,-0.6161054296875,17.401130078125,-0.88383375,-50.62827946407889,-7.595241316827715,-31.398983152780524
1694133754.73267,-0.58420845703125,0.02318548828125,0.8159084375,-0.91365181640625,19.71283662109375,0.80226244140625,-51.6830779891033,-8.434878011651934,-29.903277827585214
1694133754.7527623,-0.5947675390625,0.022636171875,0.8057766015625,-0.15071236328125004,14.11286103515625,-1.1737507421875,-51.17639172335624,-7.665088338800372,-29.56549088910865
1694133754.7726989,-0.61765572265625,0.023124453125,0.78807640625,-0.42537056640625004,9.4513009765625,-0.036970957031249974,-50.88716567709158,-7.65195144719881,-30.13708442499732
1694133754.7926843,-0.6351728125,0.0237348046875,0.77483177734375,-0.71528755859375,2.722175,-0.914351328125,-52.86788838998221,-8.900347161065996,-28.849313550607672
1694133754.812679,-0.6387128515625,0.023856875,0.771718984375,-0.66951119140625,-5.6243826171875,-1.15086255859375,-52.20416675753592,-7.6528475975894334,-30.136682501291265
1694133754.8326817,-0.6326093359375,0.02428412109375,0.7762355859375,-0.79158150390625,-11.651604296875,0.2910930078125,-52.84436363448905,-8.350177952081621,-30.01998003742408
1694133754.8528192,-0.62766548828125,0.02318548828125,0.78044701171875,-1.1349042578125,-15.18401396484375,-2.09690748046875,-51.192476449186316,-7.786379758722248,-28.046411278268806
1694133754.8727057,-0.623209921875,0.0217816796875,0.7855129296875,-0.8907636328125,-20.40251982421875,0.19191087890625003,-51.275779645597446,-7.6391868632144355,-30.72584721271705
1694133754.8926919,-0.629557578125,0.02403998046875,0.7779445703125,-1.1349042578125,-32.586662890625,-0.792281015625,-51.67964228072928,-8.089070825616778,-29.631567797433846
1694133754.9127004,-0.620280234375,0.02367376953125,0.7840480859375,-1.2569745703125,-39.41497099609375,0.09272875000000003,-50.434671471891384,-7.964304643487872,-31.0142740180149
1694133754.932699,-0.59946724609375,0.02190375,0.8061428125,-1.15779244140625,-41.71904814453125,-1.13560376953125,-50.942383190641394,-7.9808682577456835,-30.54759680329322
1694133754.9527245,-0.5765790625,0.02220892578125,0.81633568359375,-0.8907636328125,-49.56206572265625,0.3216105859375,-49.50524174203299,-7.330850907648028,-31.3780802770481
1694133754.9727106,-0.5698651953125,0.019950625,0.81926537109375,-0.83735787109375,-56.21489775390625,-0.23533521484374997,-48.51198020846366,-7.548409690851153,-32.254834981393806
1694133754.9927142,-0.55332466796875,0.0230023828125,0.8318996484375,-1.20356880859375,-60.22795927734375,-0.88383375,-48.221051756437284,-8.598086360284748,-33.61741384723853
1694133755.0128021,-0.5217694921875,0.01952337890625,0.85490990234375,-0.98994576171875,-64.57671416015626,0.80226244140625,-46.900214601407995,-7.868993861261309,-34.91108813154029
1694133755.0327296,-0.4822187109375,0.02825140625,0.8692531640625,-0.86787544921875,-67.46062529296876,-0.18955884765624997,-46.94240589913748,-8.01652353264803,-34.698577589792244
1694133755.0527244,-0.47031685546875,0.0139691796875,0.88054466796875,-0.71528755859375,-69.72655546875,0.024064199218750026,-45.065315708829864,-7.680951578058186,-36.371857748727784
1694133755.0727649,-0.43937203125,0.02098822265625,0.89604759765625,-1.20356880859375,-68.20830595703126,0.977738515625,-44.05282920040702,-8.135255649347247,-36.92847840461158
1694133755.092737,-0.40488716796875,0.019706484375,0.91533470703125,-1.1043866796875,-72.25188505859376,0.13087572265625003,-43.3138065203533,-6.99853164251131,-37.900722564645754
1694133755.1127582,-0.38535591796875,0.02013373046875,0.9117336328125,-1.5468915625,-75.8758474609375,-0.49473462890625,-42.04062942843436,-7.455906340265216,-37.91595795966529
1694133755.1327398,-0.35801216796875,0.0171430078125,0.91887474609375,-1.821549765625,-79.9346853515625,0.51997484375,-41.401717841398224,-8.323902142023028,-38.388909989328376
1694133755.1527548,-0.3159589453125,0.019218203125,0.933828359375,-1.27986275390625,-84.3139578125,-0.69309888671875,-40.013446161832796,-7.397851686944904,-40.13788660285377
1694133755.172742,-0.27195259765625,0.01329779296875,0.9522609765625,-0.8907636328125,-82.24639189453126,1.3897258203125,-39.156092862272246,-8.354515571710527,-40.12343058002662
1694133755.1927614,-0.22794625,0.0171430078125,0.968984609375,-1.40193306640625,-79.6295095703125,-0.9601276953125,-37.27651234335134,-6.843432539972246,-41.03353303376197
1694133755.2128315,-0.18552681640625,0.01720404296875,0.98613548828125,-1.42482125,-74.36522734375,0.4436808984375,-35.358603946500764,-6.857404413019121,-42.33571123456763
1694133755.2327685,-0.17246529296875,0.01732611328125,0.98332787109375,-1.7452558203125,-74.2889333984375,-0.7465046484375,-35.28433092281912,-8.183495836847246,-42.46088144159888
1694133755.2527575,-0.1448163671875,0.01653265625,0.98906517578125,-2.37849556640625,-73.42681181640626,-2.79881177734375,-33.30192818551443,-6.88388146282381,-43.78527481464576
1694133755.2727835,-0.11252876953125,0.0181195703125,0.9969387109375,-3.042252890625,-69.24590361328126,-0.78465162109375,-32.43078140450857,-7.694677576593341,-42.91685926484107
1694133755.2927673,-0.08091255859375,0.014335390625,1.0057277734375,-3.01936470703125,-67.79631865234376,-2.89799390625,-30.666908358976347,-7.116805865167559,-44.05111652924536
1694133755.3128417,-0.05576607421875,0.0095746484375,1.00798607421875,-3.26350533203125,-65.0115896484375,-2.6080769140625,-28.78550348116873,-6.869414334405841,-44.89473907196998
1694133755.3327882,-0.0325116796875,0.0125043359375,1.0106105859375,-3.774674765625,-60.9527517578125,-3.43968091796875,-28.999289852628692,-7.420277010187091,-44.91844550019264
1694133755.3527744,0.00642875,0.01927923828125,1.0262355859375,-7.55122505859375,-51.721184375,-0.06748853515624997,-26.89976932186697,-7.305726093194902,-45.123640543771735
1694133755.372779,0.29543021484375,-0.03034234375,1.17693138671875,1.291243203125,-1.1993337890625,0.75648607421875,-27.44110875546072,-8.038608869562092,-45.22247231879615
1694133755.3927748,-0.008952109375,0.012382265625,1.00584984375,0.07054007812499996,-1.43584501953125,0.68019212890625,-26.31330619381521,-7.023432580987871,-45.130980181467045
1694133755.4127848,0.0054521875,0.0021283593749999996,1.00920677734375,-0.5245526953125,2.9815744140625,1.3286906640625,-26.197699332242948,-7.188100830987871,-45.742176717844
1694133755.432812,-0.0059003515625,0.00579046875,1.002187734375,-0.63899361328125,-1.153557421875,0.4436808984375,-26.105584486539822,-7.566937940851155,-45.23173673383521
1694133755.4527867,-0.0036420507812500004,0.00487494140625,1.00017357421875,-0.34907662109375004,-2.4200369140625,-0.11326490234374997,-26.775918011686304,-6.907927606378495,-45.862468821237556
1694133755.4727905,0.0005693749999999996,0.00450873046875,1.00493431640625,-0.47114693359375004,-0.42876494140625,-0.12089429687499997,-28.063289069913846,-8.231252110773028,-45.31108916547584
1694133755.4928057,0.0016680078124999996,0.0046918359375,1.0071926171875,-0.967057578125,-0.68816435546875,-0.31162916015625,-26.50935810238455,-7.021685868585529,-45.59147820490455
1694133755.5128276,0.00038626953124999957,0.00481390625,1.006093984375,-0.05915962890625004,-0.4058767578125,0.024064199218750026,-26.434571586759546,-7.832482003351153,-45.108262550485605
1694133755.532826,0.0015459374999999996,0.004325625,1.00481224609375,-0.15834175781250004,0.31891572265625,0.11561693359375003,-26.22104481490896,-7.095287005304279,-45.8955126352024
1694133755.5528176,0.0006914453124999996,0.0054242578125,1.0042629296875,-0.66951119140625,0.74616181640625,0.0011760156250000264,-26.12460737569998,-6.828371625909748,-44.91996271796607
1694133755.5728135,-0.0016278906250000004,0.0054242578125,1.00530052734375,-0.692399375,-0.59661162109375,0.63441576171875,-27.473922792448022,-7.982252936944903,-44.86965588508033
1694133755.592814,-0.0015058203125000004,0.00585150390625,1.0040187890625,-0.42537056640625004,-0.787346484375,0.92433275390625,-26.327725861417754,-6.844631554132404,-46.05642052228736
1694133755.6128201,-0.00046822265625000043,0.00481390625,1.0040187890625,-0.9823163671875,-0.11595976562499999,-0.18192945312499997,-27.42413481088064,-8.153714757745682,-45.6531500817356
1694133755.632821,-0.0012006445312500004,0.00560736328125,1.0047512109375,-0.9823163671875,-0.6194998046875,-0.57102857421875,-26.434327934049588,-7.32844469378084,-45.841287463815675
1694133755.6528268,0.0008745507812499996,0.00511908203125,1.00505638671875,-0.42537056640625004,-0.7415701171875,0.58863939453125,-26.44754593661306,-7.187841423761309,-46.478324884836184
1694133755.6728585,0.0016069726562499996,0.0037763085937499996,1.0053615625,-0.42537056640625004,-0.26091826171875,-0.021712167968749974,-27.449888037321074,-7.817613385187089,-45.72534033307838
1694133755.6928375,-0.0005292578125000004,0.00499701171875,1.00456810546875,-0.24989449218750004,1.73798310546875,-1.27293287109375,-26.55975902902029,-7.0262313495425595,-46.85331933893775
1694133755.71284,0.0017900781249999996,0.0026776757812499996,1.00493431640625,0.558821328125,-1.48925078125,-0.13615308593749997,-27.416763634122827,-8.045220344659747,-45.325202244455326
1694133755.732848,-0.0027875585937500004,0.00682806640625,1.004140859375,-0.22700630859375004,-0.59661162109375,1.1455851953125,-26.22319878500174,-7.402814115655842,-46.19181622370338
1694133755.752872,-0.0031537695312500004,0.00579046875,1.0040187890625,-1.15779244140625,-0.665276171875,-2.08164869140625,-26.192749571866973,-7.308512984796465,-46.06950199750708
1694133755.7728715,-0.0005292578125000004,0.0042035546875,1.0047512109375,-0.63899361328125,-0.8636404296875,-1.73069654296875,-27.039412350797633,-7.8370717631167786,-45.503116832468024
1694133755.7928586,0.0015459374999999996,0.004569765625,1.0053615625,-0.22700630859375004,-0.360100390625,0.3521281640625,-26.36200667611502,-7.207799932550371,-45.45597459198951
1694133755.812887,0.00600150390625,0.0023724999999999996,1.0052394921875,0.23838675781249996,-1.46636259765625,0.611527578125,-27.5809537514324,-7.819333297784745,-46.05897806879615
1694133755.8329055,0.0014238671874999996,0.0037152734374999996,1.00420189453125,-0.5703290625,0.8911203125,1.21424974609375,-26.049492661100366,-6.5993235175113085,-46.053280659128184
1694133755.8528728,-0.0010785742187500004,0.006034609375,1.00493431640625,-1.20356880859375,-0.64238798828125,-0.06748853515624997,-25.990406198453883,-7.36444546721834,-44.71199381562232
1694133755.8728764,-0.0008344335937500004,0.0044476953125,1.00420189453125,-0.59321724609375,-1.10015166015625,-0.5328816015625,-25.77216657162283,-7.954934577081621,-44.85649382746314
1694133755.8928971,0.0008745507812499996,0.0017621484374999996,1.0042629296875,-0.93654,-0.1617361328125,-0.8380573828125,-26.381298110929468,-7.201559497491779,-44.814132680856694
1694133755.9129057,0.0019731835937499996,0.0033490624999999996,1.00444603515625,-1.180680625,-0.1922537109375,-1.585738046875,-27.397071520231226,-7.948643672296465,-44.99663184955787
1694133755.9328806,0.0017900781249999996,0.0037152734374999996,1.00493431640625,-0.6161054296875,-0.8178640625,-0.13615308593749997,-26.043288135465602,-7.27919474407381,-45.25520306476783
1694133755.9528825,0.0018511132812499996,0.0034711328124999996,1.00517845703125,-0.6466230078125,0.34180390625,0.22242845703125003,-26.602372152921657,-7.509834941827716,-45.27281890339088
1694133755.9728856,0.0016680078124999996,0.0042035546875,1.00554466796875,-1.03572212890625,0.09766328125000001,-0.792281015625,-26.059867167570097,-6.799532949151935,-44.95507946174049
1694133755.992886,0.0016069726562499996,0.0046918359375,1.00542259765625,0.23838675781249996,-0.88652861328125,-0.036970957031249974,-26.174313263273223,-6.837202528741779,-46.089857751413334
1694133756.0128944,0.0022173242187499996,0.00450873046875,1.00456810546875,-0.40248238281250004,-0.76445830078125,-0.365034921875,-27.329572615812282,-7.890631441339433,-44.86095668793678
1694133756.0329013,0.0012407617187499996,0.0032269921874999996,1.004140859375,-1.23408638671875,0.41046845703125,-2.06638990234375,-25.989192213712673,-6.835602344171466,-45.44609008442115
1694133756.0529022,0.0027666406249999996,0.0015180078124999996,1.00444603515625,-1.1349042578125,-0.71868193359375,-0.9601276953125,-27.28848721652029,-7.413002622980059,-46.57884059662818
1694133756.072942,0.0028276757812499996,0.0032880273437499996,1.0035305078125,-0.5245526953125,-0.64238798828125,1.038773671875,-26.105844026823025,-6.754384484308185,-45.95525394526099
1694133756.0929258,0.0025224999999999996,0.0029828515624999996,1.00407982421875,-1.0128339453125,-0.21514189453125,-1.48655591796875,-26.113436296964625,-6.602285025323808,-46.042221795969
1694133756.1129434,0.0013017968749999996,0.0029218164062499996,1.00322533203125,-0.844987265625,0.07477509765625001,-1.25767408203125,-27.430198316373804,-7.810915235773029,-46.3792111845188
1694133756.1329122,0.0033769921874999996,0.0029218164062499996,1.00237083984375,0.28416312499999996,-0.451653125,0.8709269921875,-26.239271191129667,-6.957064655694903,-45.69523580146217
1694133756.1529248,0.0008135156249999996,0.0042035546875,1.0025539453125,-0.49403511718750004,-0.55083525390625,0.14613451171875003,-27.480985936613063,-7.725655765558183,-45.33965114484595
1694133756.1729183,0.0025224999999999996,0.0038983789062499996,1.00395775390625,-0.50166451171875,-0.09307158203124999,-0.548140390625,-26.367756382413845,-6.761647625421465,-45.22311665131568
1694133756.1929202,0.0023393945312499996,0.0035321679687499996,1.00383568359375,-0.6161054296875,-0.88652861328125,-0.036970957031249974,-26.405619692228296,-6.87181268596834,-46.067363708688724
1694133756.2129269,0.0022783593749999996,0.0027387109374999996,1.003652578125,0.18498099609374996,-1.26799833984375,0.51234544921875,-26.293232899381618,-7.660715249933184,-45.75682203095435
1694133756.23293,0.0019121484374999996,0.0031659570312499996,1.00359154296875,-0.95942818359375,-0.451653125,0.58101,-26.451582938199977,-6.980691241632402,-46.418558710763925
1694133756.2529314,0.0008135156249999996,0.0030438867187499996,1.00194359375,-1.35615669921875,-0.88652861328125,1.26002611328125,-27.649353094938256,-7.397042677179277,-46.949593313425055
1694133756.2729647,0.0006914453124999996,0.00414251953125,1.003652578125,-0.05153023437500004,-0.50505888671875,0.733597890625,-26.56880440426443,-6.821462087823809,-45.95623891010474
1694133756.2929351,0.0021562890624999996,0.00414251953125,1.0035305078125,-0.5245526953125,-0.6500173828125,1.12269701171875,-26.71065658358572,-7.508524130304278,-45.916065291086184
1694133756.3130116,0.0024004296874999996,0.0029218164062499996,1.00346947265625,-1.0586103125,-0.88652861328125,1.47364916015625,-26.32094928988455,-7.512635551690997,-45.24738534308814
1694133756.3329678,0.0025835351562499996,0.0037763085937499996,1.0020656640625,0.70377982421875,-1.39006865234375,-0.69309888671875,-26.644674124113063,-7.074171082452716,-46.16379606598853
1694133756.3529568,0.0013017968749999996,0.0036542382812499996,1.0014553125,-0.22700630859375004,-0.76445830078125,1.06929125,-27.418852124967554,-7.680746756769122,-45.719565765817634
1694133756.372955,0.0032549218749999996,0.0029828515624999996,1.00163841796875,-0.27278267578125004,0.28839814453125,-0.47947583984375,-26.593917831266385,-6.964056533624591,-45.30796886615943
1694133756.392977,0.0028276757812499996,0.0020673242187499996,1.0015773828125,-0.59321724609375,-0.787346484375,0.039322988281250026,-27.033371285978298,-7.692060198175373,-44.11013219989966
1694133756.4129586,0.0024614648437499996,0.0022504296874999996,1.00102806640625,1.06999076171875,-0.3753591796875,0.024064199218750026,-26.525089854948025,-7.127286743585529,-45.4608537746067
1694133756.432966,0.0024614648437499996,0.0031659570312499996,1.00176048828125,0.09342826171874996,0.07477509765625001,-0.98301587890625,-26.65464593075369,-7.4283339628238085,-45.73557531452369
1694133756.4530027,0.0009355859374999996,0.00511908203125,1.0027980859375,-1.0586103125,-0.33721220703125,-1.59336744140625,-27.640217093961695,-7.607315859796467,-45.09382126178931
1694133756.4729764,8.109374999999957e-05,0.00572943359375,1.0018215234375,0.680891640625,-1.80205595703125,-0.11326490234374997,-26.30075631661795,-7.188232414972248,-45.8233245949192
1694133756.4929755,0.0007524804687499996,0.00804876953125,0.9998683984375,0.43675101562499996,-0.67290556640625,-5.675093515625,-27.278619082487086,-8.084674045831623,-45.42554321796607
1694133756.512987,0.0013017968749999996,0.01903509765625,1.00090599609375,0.82585013671875,0.48676240234375,-6.3769978125,-25.979281472623807,-7.320332195245685,-46.4342024086399
1694133756.5329976,0.0060625390625,-0.0092241796875,1.001211171875,0.33756888671874996,0.48676240234375,-2.196089609375,-26.28069184957693,-7.491731017511311,-45.13326343317603
1694133756.5529914,0.0074053125,-0.0132525,1.00444603515625,1.779524453125,-0.11595976562499999,0.81752123046875,-27.351537219938255,-7.819253472101154,-46.13733139118384
1694133756.5730188,-0.0011396093750000004,0.011893984375,0.99858666015625,-0.08204781250000004,0.1434396484375,0.08509935546875003,-26.314285725431425,-7.061103407159747,-46.436839813058846
1694133756.592996,0.0028276757812499996,0.00572943359375,1.0018215234375,-0.44825875000000004,-0.35247099609375,0.062211171875000026,-27.803494511808378,-7.920911918878497,-46.18259549323463
1694133756.6129959,0.0024614648437499996,0.00572943359375,1.0015773828125,1.19206107421875,0.555426953125,0.71070970703125,-26.402484169767362,-6.783385305597246,-46.105593240549084
1694133756.632997,0.0024004296874999996,0.00402044921875,1.00200462890625,0.04002249999999996,-0.93230498046875,0.8709269921875,-26.34938113937185,-7.12922990081209,-45.80336397797584
1694133756.6530035,-0.0022992773437500004,0.00853705078125,1.00005150390625,-0.34907662109375004,0.006110546875000011,1.2676555078125,-26.532975504362085,-7.309580600519123,-45.53327144660377
1694133756.6730072,0.00600150390625,0.004569765625,1.001699453125,0.99369681640625,0.006110546875000011,0.84803880859375,-25.965201418546656,-6.763057598077715,-45.91928280109595
1694133756.6930108,-0.0016889257812500004,0.01036810546875,1.00090599609375,0.23838675781249996,-0.67290556640625,-0.3802937109375,-27.75021324862478,-7.808498768487871,-46.42789190961646
1694133756.7130163,0.0009355859374999996,0.00841498046875,0.9991359765625,-0.91365181640625,-1.26799833984375,-0.09037671874999997,-26.20643465414236,-6.875010540948809,-46.62753646344947
1694133756.7330165,0.0008745507812499996,0.00951361328125,0.99944115234375,-1.577409140625,-1.0772634765625,-0.5939167578125,-26.210957980436305,-8.117430823175372,-45.965636489450446
1694133756.7530174,0.0020342187499999996,0.006034609375,1.00115013671875,-0.27278267578125004,-1.1993337890625,-0.6854694921875,-26.3708776075115,-10.576703542901933,-45.837020172311775
1694133756.7730243,0.0013628320312499996,0.0066449609375,1.001699453125,-0.71528755859375,-0.8636404296875,-0.036970957031249974,-26.68143386910818,-6.978092678644122,-46.39767170124244
1694133756.7930446,0.0034990624999999996,0.00450873046875,1.00127220703125,-1.1349042578125,-0.5737234375,0.15376390625000003,-27.73171256014822,-7.476134037530841,-45.857270172677985
1694133756.8130455,0.0025835351562499996,0.00463080078125,1.00115013671875,0.41386283203124996,-0.5737234375,-0.93723951171875,-26.380068492155054,-7.0835139511050595,-46.53964222016334
1694133756.8330476,0.0013628320312499996,0.0053021875,1.00102806640625,-0.31855904296875004,-1.22222197265625,0.062211171875000026,-27.43093492245291,-7.808846096612871,-45.10622430744361
1694133756.8530474,0.00404837890625,0.0029218164062499996,1.00249291015625,-0.86787544921875,0.1434396484375,0.22242845703125003,-26.676862955656034,-6.9009881024722475,-44.87558279169654
1694133756.8730748,0.0011797265624999996,0.0072553125,1.0006008203125,-1.0586103125,-0.33721220703125,0.80226244140625,-26.32694394247244,-6.849452653741778,-45.95298115912818
1694133756.8930736,0.0027666406249999996,0.0039594140625,1.00127220703125,0.7266680078125,-0.71868193359375,0.42079271484375,-27.86335816683767,-7.597432957940995,-45.74987850873755
1694133756.9130611,0.0025224999999999996,0.00719427734375,0.998281484375,-0.44825875000000004,0.09766328125000001,-0.7617634375,-26.556592847013455,-6.971254198175373,-45.38762538678932
1694133756.9330533,0.0015459374999999996,0.00560736328125,1.0023098046875,-0.9823163671875,-0.04729521484374999,0.054581777343750026,-27.507970134733185,-7.412753173273027,-45.4452498284397
1694133756.9530602,0.0020952539062499996,0.0053021875,1.00029564453125,0.43675101562499996,-1.031487109375,0.58863939453125,-26.379996265592553,-7.114747897394123,-46.40065171381568
1694133756.9730694,0.0014238671874999996,0.00548529296875,1.00127220703125,-0.24989449218750004,-0.38298857421875,-0.036970957031249974,-26.49499736092947,-7.043707914483965,-46.69144358576392
1694133756.9930692,0.004231484375,0.0037152734374999996,0.99968529296875,-0.9823163671875,0.04425751953125001,-0.70835767578125,-27.432726719694116,-8.087817649347247,-45.48405208942604
1694133757.0130804,0.0023393945312499996,0.005058046875,1.00017357421875,0.802961953125,-1.0772634765625,0.45131029296875,-26.653533479215604,-6.929653430597247,-46.35366760212134
1694133757.0330842,0.0016680078124999996,0.00621771484375,1.00041771484375,-0.05153023437500004,-1.1993337890625,0.977738515625,-27.740110348600368,-8.268569949640217,-44.77915573456763
1694133757.053086,0.0028887109374999996,0.0029218164062499996,1.0010891015625,-0.22700630859375004,-0.84075224609375,0.20716966796875003,-26.556932579191187,-7.487620842706621,-45.973024723093026
1694133757.0730894,0.0024004296874999996,0.0015790429687499996,1.001211171875,0.50541556640625,0.57831513671875,1.4812785546875,-26.34746984127615,-7.767235945245684,-45.63795150287818
1694133757.0931573,0.0026445703124999996,0.00426458984375,0.99999046875,1.4896074609375,0.02899873046875001,-0.036970957031249974,-26.665588069425567,-7.807302656671466,-45.30628320759009
1694133757.1131082,0.0037432031249999996,0.0015180078124999996,0.9991359765625,0.802961953125,-0.47454130859375,0.22242845703125003,-26.35282463509939,-6.956527731378497,-45.53564772211646
1694133757.133104,0.00038626953124999957,0.0068891015625,1.00029564453125,0.558821328125,0.16632783203125,1.27528490234375,-26.843986628385522,-7.514149677667559,-45.1140996228733
1694133757.153106,0.0028887109374999996,0.00572943359375,1.0010891015625,1.3675371484375,-0.4058767578125,1.48890794921875,-26.53192509908865,-7.208296954523028,-45.84733928022193
1694133757.1731405,0.0036211328124999996,0.00487494140625,1.00029564453125,0.62748587890625,0.36469208984375,0.5657512109375,-26.700750256193142,-7.8263619481753715,-46.2462261096897
1694133757.1929882,0.00502494140625,0.0053021875,1.00066185546875,0.06291068359374996,-0.26091826171875,1.1150676171875,-26.83692238485525,-6.959800425714434,-45.33314178681373
1694133757.2129729,-0.0010785742187500004,0.004569765625,1.00151634765625,-0.37196480468750004,-0.50505888671875,0.3521281640625,-26.28231902731131,-7.158417804132403,-46.70759637555884
1694133757.2329879,0.0013017968749999996,0.0068891015625,0.99883080078125,0.925032265625,-0.2838064453125,-0.014082773437499974,-27.18013055929373,-7.445547380792558,-45.796603702585216
1694133757.252985,0.0023393945312499996,0.007499453125,1.0001125390625,0.23838675781249996,-0.6194998046875,0.54286302734375,-26.924838788907984,-7.356225733331621,-44.85786223114967
